File: raman_enhancement_factor/Renata_Raman_12_12_2025/Oil_BHT_0_08Au_sub.txt
100.582	411
104.437	361
108.287	339.5
112.136	341
115.981	345.5
119.823	331
123.663	261
127.499	295
131.333	265
135.163	285.5
138.992	290
142.816	239
146.637	238
150.457	220
154.273	208
158.086	189.5
161.896	190
165.703	170
169.507	168
173.309	158
177.107	158
180.902	139
184.695	136
188.485	148
192.272	138
196.055	131
199.837	117
203.615	142
207.39	133
211.162	132.5
214.932	103
218.697	118.5
222.462	106.5
226.222	132.5
229.98	92
233.734	98
237.486	128
241.235	114
244.981	134
248.725	171
252.465	155
256.203	83
259.937	118
263.669	111
267.398	103
271.123	102
274.846	77
278.566	61
282.283	64
285.998	83
289.71	77
293.418	89
297.123	71
300.826	74.5
304.526	72
308.223	68
311.917	57
315.609	48.5
319.297	66
322.982	56.5
326.665	51
330.345	75
334.022	43
337.696	53
341.367	55
345.036	39.5
348.701	64.5
352.363	55
356.023	39
359.68	49
363.334	41
366.986	52
370.633	56
374.279	44.5
377.921	51
381.562	40
385.198	37
388.832	30
392.463	36
396.092	43
399.717	31
403.34	35.5
406.96	31
410.576	18.5
414.191	29
417.802	28
421.41	36
425.016	27.5
428.619	25
432.218	46
435.815	26
439.41	35.5
443.001	-3
446.59	21
450.175	22.5
453.758	18
457.339	24
460.916	6
464.49	16.5
468.062	22
471.631	31
475.196	27
478.76	17
482.32	6.5
485.877	10.5
489.432	14.5
492.984	22
496.533	19
500.079	8
503.622	17.5
507.163	10
510.701	23
514.236	18
517.768	20.5
521.297	-6
524.823	6.5
528.348	11.5
531.868	23.5
535.386	25
538.902	-4
542.414	4.5
545.924	5
549.431	10.5
552.935	7
556.436	13.5
559.935	11
563.431	8.5
566.924	6
570.414	5.5
573.901	9.5
577.385	-2
580.867	-6
584.347	0.5
587.822	2.5
591.296	14.5
594.767	13
598.234	17
601.699	12
605.161	11
608.621	14
612.078	2.5
615.532	7
618.983	4.5
622.431	-5.5
625.877	5
629.32	-7
632.76	3
636.197	-4
639.632	-4
643.064	-5
646.493	-6
649.919	-1.5
653.342	11
656.764	-2
660.181	5
663.596	-19
667.009	10
670.419	-7
673.826	-6
677.23	-1
680.631	-11.5
684.03	11.5
687.426	-1.5
690.819	-16
694.21	22.5
697.597	-14
700.982	0.5
704.364	8.5
707.744	9.5
711.12	17
714.495	0
717.865	-9.5
721.234	-8
724.6	14.5
727.962	17.5
731.323	4
734.681	9
738.036	7.5
741.387	-8.5
744.736	1.5
748.083	-3.5
751.427	-4
754.768	-1
758.107	0
761.443	-2
764.776	15
768.106	-1
771.434	1
774.758	-2
778.081	0
781.399	0.5
784.716	0
788.03	7
791.341	-25
794.65	2
797.956	5.5
801.259	13.5
804.559	11
807.857	-4
811.152	-9
814.444	3
817.733	5
821.02	17.5
824.305	26.5
827.586	29.5
830.865	24
834.141	20.5
837.414	29
840.685	46
843.952	27
847.218	24
850.48	35
853.74	26.5
856.997	22.5
860.252	29
863.504	16
866.753	31
869.999	30.5
873.243	19.5
876.484	35
879.722	36
882.958	24
886.191	25.5
889.421	28
892.649	17.5
895.874	28
899.096	24
902.315	-3
905.533	12
908.747	21
911.958	18
915.167	13
918.374	-2
921.577	12
924.778	9.5
927.977	12
931.173	19.5
934.365	14
937.556	-2
940.743	11
943.928	19
947.11	20.5
950.29	21.5
953.467	12
956.641	7
959.813	14
962.982	5
966.149	24
969.312	23
972.473	33
975.631	17
978.787	10.5
981.94	7
985.091	2
988.239	-9
991.384	-21
994.527	-7
997.666	1
1000.8	19.5
1003.94	22
1007.07	17.5
1010.2	0
1013.33	7
1016.45	11
1019.57	20.5
1022.69	12
1025.81	-6
1028.92	-8
1032.03	1
1035.14	8.5
1038.25	16
1041.35	18
1044.45	-1
1047.55	-6
1050.64	8.5
1053.74	9
1056.83	18.5
1059.91	23
1063	7
1066.08	24.5
1069.16	24
1072.24	31
1075.31	41
1078.38	24
1081.45	9
1084.52	26
1087.58	26
1090.64	27
1093.7	7
1096.76	-1
1099.81	-2
1102.86	2.5
1105.91	14
1108.96	7
1112	1.5
1115.04	-9
1118.08	-3
1121.11	3
1124.15	5
1127.18	-3
1130.2	-5.5
1133.23	-5.5
1136.25	-6.5
1139.27	-7.5
1142.29	10.5
1145.3	-12
1148.32	-16
1151.33	-16.5407
1154.33	-14.2804
1157.34	11.1839
1160.34	-3.28439
1163.34	-22.7698
1166.33	-9.91237
1169.33	-9.03099
1172.32	-21.7792
1175.31	-5.24117
1178.3	-3.71469
1181.28	2.69601
1184.26	-6.67302
1187.24	-0.31153
1190.22	-0.794979
1193.19	-3.26133
1196.16	-17.5618
1199.13	-6.41691
1202.09	-15.4793
1205.06	-5.33178
1208.02	-7.69955
1210.98	7.24544
1213.93	-8.87175
1216.89	-1.32576
1219.84	-3.89027
1222.78	2.53519
1225.73	2.47619
1228.67	3.26815
1231.61	1.58784
1234.55	5.91113
1237.49	13.8391
1240.42	14.6602
1243.35	21.8308
1246.28	15.847
1249.2	26.2702
1252.12	35.581
1254.74	32.5
1257.76	24
1260.79	44
1263.81	46.5
1266.82	38
1269.84	48.5
1272.85	41.5
1275.86	26
1278.87	25
1281.88	30
1284.88	17
1287.89	15.5
1290.89	5
1293.88	40
1296.88	39
1299.87	32
1302.86	33
1305.85	42
1308.84	27
1311.83	19.5
1314.81	31.5
1317.79	18
1320.77	18
1323.74	10.5
1326.72	-2
1329.69	4
1332.66	16.5
1335.62	0
1338.59	-1
1341.55	5
1344.51	-3
1347.47	14
1350.43	-14.5
1353.38	-6
1356.33	-3.5
1359.28	-5
1362.23	-13
1365.17	-2
1368.12	-6
1371.06	-4
1373.99	-8
1376.93	1.5
1379.86	-11
1382.8	-17
1385.73	-3
1388.65	-15.5
1391.58	-13
1394.5	-14
1397.42	-18
1400.34	-12.5
1403.26	-14
1406.17	-7
1409.08	-12
1411.99	-15
1414.9	-13.5
1417.81	3
1420.71	-13
1423.61	-10
1426.51	4.5
1429.41	9
1432.3	47.5
1435.2	57.5
1438.09	63
1440.97	43
1443.86	29
1446.74	30.5
1449.63	26
1452.5	14.5
1455.38	20
1458.26	5
1461.13	15
1464	3
1466.87	-3.5
1469.73	-6
1472.6	-5
1475.46	-5.5
1478.32	-32
1481.18	-5.5
1484.03	-20
1486.89	-18
1489.74	-22
1492.59	-11
1495.43	-28
1498.28	-21
1501.12	-7.5
1503.96	-22
1506.8	-43
1509.64	-30
1512.47	-19.5
1515.3	-15.5
1518.13	-34.5
1520.96	-11
1523.78	-18
1526.6	-30.5
1529.43	-23
1532.24	-31.5
1535.06	-25.5
1537.88	-25
1540.69	-39
1543.5	-35
1546.3	-34
1549.11	-26.5
1551.91	-29.5
1554.72	-21
1557.51	-37
1560.31	-20
1563.11	-22
1565.9	-20
1568.69	-39
1571.48	-25
1574.26	-24
1577.05	-27
1579.83	-22
1582.61	-29
1585.39	-35
1588.16	-36
1590.94	-29
1593.71	-24
1596.48	-20
1599.24	-35
1602.01	-31
1604.77	-18.5
1607.53	-35
1610.29	-22
1613.05	-29
1615.8	-24.5
1618.55	-35
1621.3	-36.5
1624.05	-26
1626.79	-27
1629.54	-24.5
1632.28	-20
1635.02	-26
1637.75	-19
1640.49	-10
1643.22	-9
1645.95	9.5
1648.68	1.5
1651.41	23.5
1654.13	29.5
1656.85	40
1659.57	34
1662.29	7
1665.01	-26
1667.72	-29
1670.43	-14.5
1673.14	-26.5
1675.85	-21.5
1678.55	-34
1681.25	-27.5
1683.95	-37
1686.65	-17
1689.35	-20.5
1692.04	-53
1694.74	-25
1697.43	-32.5
1700.11	-25.5
1702.8	-23.5
1705.48	-16
1708.16	-22
1710.84	-27
1713.52	-28.5
1716.2	-25
1718.87	-20
1721.54	-20.5
1724.21	-40
1726.88	-53
1729.54	-28
1732.2	-14
1734.86	-28
1737.52	-25.5
1740.18	-33
1742.83	-10.5
1745.48	-24
1748.13	-21
1750.78	-23
1753.43	-21.25
1756.07	-31
1758.71	-32
1761.35	-27.5
1763.99	-41
1766.62	-36
1769.25	-17.5
1771.89	-35
1774.51	-25
1777.14	-33
1779.76	-34.5
1782.39	-25
1785.01	-41
1787.63	-38
1790.24	-19
1792.86	-33.5
1795.47	-38
1798.08	-38
1800.68	-28
1803.29	-37
1805.89	-27
1808.49	-28.5
1811.09	-27
1813.69	-32.5
1816.29	-40
1818.88	-35
1821.47	-29
1824.06	-39.5
1826.65	-42
1829.23	-38
1831.81	-30
1834.39	-20.5
1836.97	-27
1839.55	-24
1842.12	-29
1844.69	-30
1847.26	-24.5
1849.83	-26.5
1852.4	-39
1854.96	-30
1857.52	-26
1860.08	-31
1862.64	-14
1865.19	-36
1867.75	-26.5
1870.3	-43
1872.85	-35
1875.4	-21
1877.94	-26.5
1880.48	-18
1883.02	-29
1885.56	-24.5
1888.1	-33
1890.63	-33
1893.17	-39
1895.7	-29.5
1898.23	-36
1900.75	-37
1903.28	-33
1905.8	-23
1908.32	-27
1910.84	-35
1913.35	-30
1915.87	-18
1918.38	-27
1920.89	-23.5
1923.4	-35
1925.9	-28.5
1928.41	-42
1930.91	-42
1933.41	-37.5
1935.9	-33.5
1938.4	-26
1940.89	-23.5
1943.38	-46
1945.87	-30
1948.36	-29
1950.84	-19.5
1953.33	-25
1955.81	-33
1958.29	-33
1960.76	-24
1963.24	-35.5
1965.71	-24
1968.18	-31
1970.65	-33
1973.12	-36
1975.58	-35
1978.04	-21
1980.5	-23
1982.96	-29
1985.42	-38.5
1987.87	-24
1990.32	-40.5
1992.78	-32
1995.22	-28.5
1997.67	-23.5
2000.11	-39.0979
2002.56	-31.5594
2004.99	-23.1684
2007.43	-31.5643
2009.87	-15.9207
2012.3	-26.8605
2014.73	-32.0996
2017.16	-35.4212
2019.59	-30.0035
2022.02	-18.0594
2024.44	-18.9752
2026.86	-33.9368
2029.28	-30.628
2031.7	-22.4589
2034.11	-28.499
2036.53	-18.401
2038.94	-26.019
2041.35	-32.1515
2043.76	-30.2728
2046.16	-19.7793
2048.56	-28.3874
2050.97	-25.7157
2053.36	-28.8942
2055.76	-13.9868
2058.16	-30.0506
2060.55	-20.5392
2062.94	-29.1988
2065.33	-16.8287
2067.72	-14.136
2070.1	-17.0615
2072.49	-23.7913
2074.87	-33.0369
2077.25	-9.77024
2079.62	-24.0498
2081.38	-32
2083.86	-12.5
2086.34	-9
2088.81	-8.5
2091.29	-22.5
2093.76	-16
2096.23	-15
2098.7	-7
2101.17	-9.5
2103.64	-6
2106.1	-19.5
2108.56	-26
2111.03	-18
2113.48	-18
2115.94	-15.5
2118.4	-9
2120.85	-18.5
2123.3	-36.5
2125.76	-25.5
2128.2	-27
2130.65	-11
2133.1	-15
2135.54	-15
2137.98	-24
2140.42	-23.5
2142.86	-13
2145.3	-14
2147.73	-15
2150.16	-19.5
2152.6	-21
2155.02	-21
2157.45	-9
2159.88	-4.5
2162.3	-28.5
2164.73	-18
2167.15	-54
2169.57	-17
2171.98	-13
2174.4	-30
2176.81	-23
2179.22	-20
2181.63	-33.5
2184.04	-15
2186.45	-22.5
2188.86	-15
2191.26	-47
2193.66	-45
2196.06	-16
2198.46	-27
2200.85	-33
2203.25	-35.5
2205.64	-25.5
2208.03	-29.5
2210.42	-33
2212.81	-22
2215.2	-28.5
2217.58	-35.5
2219.96	-40
2222.34	-34.5
2224.72	-23.5
2227.1	-22
2229.47	-27
2231.85	-33
2234.22	-41
2236.59	-28
2238.96	-22.5
2241.33	-35.5
2243.69	-48
2246.05	-41.5
2248.41	-39
2250.77	-30
2253.13	-25.5
2255.49	-49
2257.84	-22.5
2260.2	-30.5
2262.55	-39
2264.9	-25.5
2267.24	-29
2269.59	-40
2271.93	-36
2274.28	-33
2276.62	-29.5
2278.96	-32
2281.29	-32.5
2283.63	-36
2285.96	-60
2288.29	-49
2290.62	-43
2292.95	-34.5
2295.28	-34
2297.6	-55
2299.93	-27.5
2302.25	-27.5
2304.57	-20
2306.89	-25.5
2309.2	-33.5
2311.52	-40
2313.83	-35
2316.14	-42
2318.45	-21
2320.76	-48
2323.06	-43.5
2325.37	-52
2327.67	-29
2329.97	-19
2332.27	-21
2334.57	-20
2336.86	-48
2339.16	-40
2341.45	-29.5
2343.74	-28.5
2346.03	-34
2348.31	-36
2350.6	-49
2352.88	-43
2355.17	-33.5
2357.45	-30
2359.72	-27
2362	-41
2364.28	-53
2366.55	-36
2368.82	-26
2371.09	-17
2373.36	-36
2375.62	-54
2377.89	-40
2380.15	-32
2382.41	-36
2384.67	-38.5
2386.93	-37
2389.18	-28
2391.44	-35
2393.69	-30.5
2395.94	-27.5
2398.19	-23
2400.44	-38.5
2402.68	-49
2404.93	-41.5
2407.17	-23.5
2409.41	-36
2411.65	-33
2413.89	-31
2416.12	-37.5
2418.35	-31.5
2420.59	-28
2422.82	-34.5
2425.04	-39.5
2427.27	-40
2429.5	-42
2431.72	-50
2433.94	-34
2436.16	-33
2438.38	-48
2440.59	-39
2442.81	-30
2445.02	-48
2447.23	-42.5
2449.44	-48
2451.65	-36
2453.86	-39
2456.06	-36
2458.26	-39
2460.46	-32.5
2462.66	-47
2464.86	-45
2467.06	-44
2469.25	-36
2471.44	-24.5
2473.63	-33.5
2475.82	-31
2478.01	-49
2480.19	-38.5
2482.38	-34
2484.56	-33.5
2486.74	-28.5
2488.92	-47
2491.1	-44
2493.27	-36.25
2495.45	-32.5
2497.62	-34
2499.79	-28
2501.96	-45
2504.12	-40
2506.29	-41
2508.45	-37
2510.61	-37
2512.77	-34
2514.93	-35
2517.09	-43.5
2519.24	-42
2521.4	-31
2523.55	-25
2525.7	-37
2527.84	-28
2529.99	-42.5
2532.14	-37.5
2534.28	-30
2536.42	-42
2538.56	-28
2540.7	-30
2542.83	-39
2544.97	-27
2547.1	-33
2549.23	-29.5
2551.36	-43
2553.49	-45
2555.61	-42
2557.74	-24
2559.86	-43.5
2561.98	-38
2564.1	-49
2566.22	-40
2568.33	-30.5
2570.45	-30
2572.56	-35.5
2574.67	-26
2576.78	-38
2578.89	-38
2580.99	-37.5
2583.1	-42
2585.2	-36
2587.3	-54
2589.4	-35
2591.5	-27
2593.59	-32.5
2595.68	-35.5
2597.78	-35
2599.87	-36.5
2601.96	-31
2604.04	-27
2606.13	-46
2608.21	-32.5
2610.29	-36
2612.37	-38.5
2614.45	-39
2616.53	-36
2618.6	-27.5
2620.68	-21
2622.75	-51
2624.82	-37
2626.89	-42
2628.96	-32
2631.02	-22
2633.08	-44
2635.15	-38
2637.21	-41
2639.26	-29
2641.32	-33.5
2643.38	-36
2645.43	-37
2647.48	-37.5
2649.53	-37
2651.58	-40.5
2653.63	-38.5
2655.67	-34.5
2657.71	-40
2659.76	-45
2661.8	-32.5
2663.83	-28
2665.87	-34
2667.91	-38
2669.94	-30
2671.97	-50
2674	-21
2676.03	-36
2678.06	-44
2680.08	-41
2682.1	-19.5
2684.12	-35.5
2686.14	-29
2688.16	-27
2690.18	-20.5
2692.19	-34
2694.21	-37.8273
2696.22	-37.3228
2698.23	-24.8255
2700.24	-31.875
2702.24	-22.8288
2704.25	-42.3786
2706.25	-33.5126
2708.25	-30.7328
2710.25	-20.8357
2712.25	-28.2335
2714.25	-37.2877
2716.24	-30.9449
2718.23	-30.4009
2720.23	-27.4068
2722.22	-29.8967
2724.2	-25.4046
2726.19	-24.7313
2728.18	-25.3577
2730.16	-28.936
2732.14	-23.5422
2734.12	-27.0182
2736.1	-26.2576
2738.07	-22.1974
2740.05	-23.1044
2742.02	-25.3262
2743.99	-22.2854
2745.96	-19.4551
2747.93	-17.791
2749.9	-20.6053
2751.86	-25.4205
2753.83	-22.8784
2755.79	-10.0134
2757.75	-16.4692
2759.71	-26.1372
2761.66	-14.2134
2763.63	2
2765.69	-8.5
2767.75	-12
2769.81	-18
2771.87	-23
2773.92	-3
2775.97	-18.5
2778.03	-16.5
2780.08	-17.5
2782.12	-23.5
2784.17	-13.5
2786.22	-26
2788.26	-6
2790.31	-2
2792.35	-14.5
2794.39	-31
2796.43	-7
2798.46	-12.5
2800.5	-15
2802.54	-34.5
2804.57	-26.5
2806.6	-35
2808.63	-26
2810.66	-18.5
2812.69	-20.5
2814.71	-24
2816.74	-25
2818.76	-24.5
2820.78	-19.5
2822.8	-13.5
2824.82	-37
2826.84	-25
2828.86	-22
2830.87	-15.5
2832.88	-6
2834.9	-17
2836.91	-15.5
2838.91	-32.5
2840.92	-2
2842.93	-26
2844.93	-17
2846.93	-10
2848.94	-18.5
2850.94	-9.5
2852.94	-4.5
2854.93	-20
2856.93	-12
2858.92	0
2860.92	-16
2862.91	-12
2864.9	-14.5
2866.89	-20
2868.87	-23
2870.86	-29.5
2872.84	-20
2874.83	-26
2876.81	-15
2878.79	-8
2880.77	-28
2882.75	-27
2884.72	-23
2886.7	-17
2888.67	-20
2890.64	-16.5
2892.61	-20
2894.58	-26
2896.55	-20.5
2898.51	-22
2900.48	-30
2902.44	-20
2904.4	-29.5
2906.36	-20
2908.32	-30
2910.28	-26
2912.23	-21.5
2914.19	-19.5
2916.14	-33
2918.09	-44
2920.04	-43
2921.99	-16.5
2923.94	-18
2925.88	-14
2927.83	-23
2929.77	-21
2931.71	-20
2933.65	-14
2935.59	-16.5
2937.53	-20
2939.46	-20
2941.4	-32
2943.33	-28
2945.26	-22.5
2947.19	-25
2949.12	-29
2951.05	-37.5
2952.98	-28
2954.9	-34
2956.82	-34.5
2958.74	-18
2960.66	-27.5
2962.58	-44
2964.5	-32
2966.42	-18
2968.33	-44
2970.24	-18.5
2972.15	-28
2974.06	-37.5
2975.97	-25
2977.88	-30
2979.79	-28
2981.69	-38.5
2983.59	-41.5
2985.49	-31
2987.39	-22
2989.29	-18
2991.19	-29
2993.09	-42
2994.98	-36
2996.87	-38
2998.77	-31.5
3000.66	-25
3002.54	-24.5
3004.43	-32
3006.32	-43
3008.2	-27
3010.08	-25
3011.97	-25.5
3013.85	-47
3015.72	-35
3017.6	-44
3019.48	-22
3021.35	-26.5
3023.23	-39
3025.1	-35
3026.97	-35
3028.84	-18.5
3030.7	-25.5
3032.57	-30
3034.43	-34.5
3036.3	-32.5
3038.16	-37
3040.02	-31.5
3041.88	-38
3043.73	-24.5
3045.59	-35.5
3047.44	-56
3049.3	-20
3051.15	-30
3053	-29
3054.85	-26
3056.7	-30.5
3058.54	-30.5
3060.39	-30
3062.23	-16.5
3064.07	-31.5
3065.91	-37.5
3067.75	-44
3069.59	-44
3071.42	-50.5
3073.26	-25
3075.09	-30.5
3076.92	-47
3078.75	-46
3080.58	-51
3082.41	-26
3084.24	-30
3086.06	-35
3087.88	-41
3089.71	-75
3091.53	-39
3093.34	-39
3095.16	-45
3096.98	-26
3098.79	-34.5
3100.61	-53
3102.42	-32
3104.23	-38
3106.04	-37
3107.85	-43
3109.65	-38.5
3111.46	-50.5
3113.26	-43
3115.06	-34
3116.86	-30
3118.66	-44
3120.46	-44.5
3122.26	-29
3124.05	-43
3125.84	-30.5
3127.64	-42
3129.43	-47
3131.22	-42
3133	-31
3134.79	-30
3136.58	-25
3138.36	-32
3140.14	-39
3141.92	-41.5
3143.7	-20
3145.48	-26.5
3147.26	-36
3149.03	-25
3150.8	-46.5
3152.58	-37.5
3154.35	-33
3156.12	-30
3157.88	-38
3159.65	-40.5
3161.42	-42
3163.18	-33.5
3164.94	-37
3166.7	-22.5
3168.46	-26.5
3170.22	-56.5
3171.98	-33
3173.73	-38
3175.49	-31
3177.24	-28.5
3178.99	-43
3180.74	-35
3182.49	-44
3184.23	-20
3185.98	-17
3187.72	-40
3189.47	-53
3191.21	-36
3192.95	-38
3194.69	-31
3196.42	-40.5
3198.16	-36.5
3199.89	-38.5