File: raman_enhancement_factor/Renata_Raman_12_12_2025/Oil_BHT_0_008Au_sub_Aged_50Xlens_785_1200grating_25%_acc3_acq3s_AE50000_1.txt
100.582	451
104.437	440.5
108.287	396
112.136	385.5
115.981	375
119.823	334.5
123.663	331
127.499	345.5
131.333	322
135.163	323
138.992	307.5
142.816	286
146.637	283.5
150.457	244
154.273	237
158.086	218.5
161.896	214
165.703	202.5
169.507	202
173.309	184
177.107	164
180.902	171.5
184.695	177.5
188.485	165.5
192.272	151
196.055	161
199.837	155
203.615	155
207.39	137
211.162	152.5
214.932	161
218.697	125
222.462	136
226.222	127
229.98	120
233.734	114
237.486	125
241.235	160
244.981	182
248.725	222.5
252.465	212
256.203	136.5
259.937	156.5
263.669	134
267.398	126
271.123	119
274.846	102.5
278.566	117
282.283	119.5
285.998	93
289.71	96
293.418	91
297.123	106
300.826	110
304.526	86
308.223	74
311.917	87
315.609	81.5
319.297	81.5
322.982	76
326.665	64
330.345	61.5
334.022	64
337.696	83
341.367	76.5
345.036	70
348.701	76
352.363	65
356.023	67.5
359.68	71
363.334	77
366.986	61
370.633	62.5
374.279	48.5
377.921	58
381.562	48.5
385.198	63
388.832	59
392.463	50
396.092	47
399.717	57.5
403.34	59
406.96	54
410.576	39
414.191	39
417.802	35.5
421.41	58.5
425.016	49
428.619	33
432.218	30.5
435.815	43
439.41	43
443.001	45.5
446.59	35.5
450.175	33
453.758	30.5
457.339	20
460.916	20.5
464.49	46
468.062	39
471.631	18
475.196	21.5
478.76	17
482.32	37.5
485.877	31
489.432	41
492.984	38
496.533	32
500.079	23
503.622	31
507.163	28
510.701	27
514.236	8
517.768	17.5
521.297	17.5
524.823	33
528.348	16.5
531.868	23
535.386	16
538.902	26
542.414	18.5
545.924	25
549.431	16
552.935	15.5
556.436	0
559.935	25
563.431	26
566.924	2
570.414	3.5
573.901	12.5
577.385	24
580.867	21.5
584.347	13
587.822	26.5
591.296	16.5
594.767	10.5
598.234	8
601.699	20
605.161	20.5
608.621	14
612.078	2
615.532	9
618.983	12
622.431	22
625.877	12.5
629.32	-1
632.76	2.5
636.197	13
639.632	17
643.064	10
646.493	5
649.919	9
653.342	-14
656.764	-4
660.181	13.5
663.596	14.5
667.009	-6
670.419	6
673.826	0.5
677.23	7
680.631	11
684.03	-4
687.426	5
690.819	2
694.21	5.5
697.597	6
700.982	15
704.364	7
707.744	-20
711.12	2
714.495	19.5
717.865	21
721.234	18
724.6	27.5
727.962	7
731.323	3.5
734.681	14.5
738.036	7.5
741.387	4
744.736	-9
748.083	-5
751.427	3.5
754.768	11.5
758.107	16.5
761.443	-7
764.776	7
768.106	11
771.434	9.5
774.758	8.5
778.081	1
781.399	4
784.716	3
788.03	-4.5
791.341	15
794.65	19.5
797.956	18
801.259	-15
804.559	0
807.857	9
811.152	20.5
814.444	26
817.733	17
821.02	11
824.305	17
827.586	31
830.865	48.5
834.141	42
837.414	23
840.685	37
843.952	39
847.218	36.5
850.48	42
853.74	11
856.997	9
860.252	26
863.504	21
866.753	38
869.999	61
873.243	39.5
876.484	33
879.722	20
882.958	31.5
886.191	32.5
889.421	32
892.649	1
895.874	32
899.096	23
902.315	27.5
905.533	39.5
908.747	35
911.958	20
915.167	18.5
918.374	18
921.577	20.5
924.778	23
927.977	26
931.173	17
934.365	16
937.556	26
940.743	28
943.928	22
947.11	17
950.29	10
953.467	21
956.641	25
959.813	22
962.982	27
966.149	19
969.312	25
972.473	28
975.631	22.5
978.787	19
981.94	12
985.091	2
988.239	9
991.384	5.5
994.527	10
997.666	12
1000.8	0
1003.94	1
1007.07	-4
1010.2	14
1013.33	19.5
1016.45	11.5
1019.57	-10.5
1022.69	-2
1025.81	10.5
1028.92	12.5
1032.03	4
1035.14	3
1038.25	16
1041.35	9
1044.45	8.5
1047.55	19
1050.64	5
1053.74	-6
1056.83	17.5
1059.91	16
1063	35.5
1066.08	31.5
1069.16	29.5
1072.24	20
1075.31	29.5
1078.38	26.5
1081.45	32
1084.52	35.5
1087.58	35
1090.64	18
1093.7	11
1096.76	19
1099.81	9.5
1102.86	12
1105.91	-5
1108.96	7
1112	0.5
1115.04	20
1118.08	10
1121.11	7
1124.15	-0.5
1127.18	-10
1130.2	1
1133.23	5
1136.25	-7
1139.27	-8
1142.29	-7
1145.3	-5.5
1148.32	-5.5
1151.33	1.2048
1154.33	1.19187
1157.34	-8.4377
1160.34	-3.75031
1163.34	-2.85581
1166.33	-8.94396
1169.33	-2.37139
1172.32	-11.4286
1175.31	-2.32927
1178.3	4.11395
1181.28	4.57088
1184.26	1.52994
1187.24	-2.11467
1190.22	-6.67072
1193.19	0.264367
1196.16	1.78958
1199.13	-5.18943
1202.09	6.30279
1205.06	-6.67844
1208.02	-0.468469
1210.98	-2.76562
1213.93	-1.80755
1216.89	8.45098
1219.84	-7.44465
1222.78	1.14076
1225.73	8.10625
1228.67	6.68333
1231.61	0.797777
1234.55	11.2654
1237.49	9.45375
1240.42	13.9649
1243.35	16.1702
1246.28	17.7869
1249.2	21.0457
1252.12	36.123
1254.74	46.5
1257.76	60
1260.79	44
1263.81	48
1266.82	48.5
1269.84	49
1272.85	37.5
1275.86	38.5
1278.87	47
1281.88	28
1284.88	25
1287.89	32
1290.89	35
1293.88	42.5
1296.88	49
1299.87	57.5
1302.86	59.5
1305.85	30
1308.84	38.5
1311.83	41
1314.81	37.5
1317.79	38
1320.77	21.5
1323.74	22
1326.72	12
1329.69	5.5
1332.66	0
1335.62	2
1338.59	1
1341.55	10
1344.51	-7
1347.47	13.5
1350.43	10.5
1353.38	2
1356.33	-7
1359.28	10
1362.23	-10
1365.17	1.5
1368.12	-4.5
1371.06	-3.5
1373.99	-3.5
1376.93	-12.5
1379.86	-2
1382.8	-6
1385.73	-6.5
1388.65	-11.5
1391.58	-13
1394.5	-14
1397.42	-3
1400.34	1
1403.26	-0.5
1406.17	-15
1409.08	-19.5
1411.99	-8
1414.9	10
1417.81	6.5
1420.71	-6.5
1423.61	-7.5
1426.51	5.5
1429.41	18
1432.3	52
1435.2	53
1438.09	71
1440.97	49
1443.86	35
1446.74	53.5
1449.63	34.5
1452.5	22.5
1455.38	19.5
1458.26	10
1461.13	16
1464	19
1466.87	8.5
1469.73	-2.5
1472.6	1
1475.46	-16
1478.32	-10
1481.18	-13.5
1484.03	-13
1486.89	-29
1489.74	-17.5
1492.59	-13
1495.43	-12.5
1498.28	-14
1501.12	-12.5
1503.96	-30
1506.8	-33
1509.64	-21
1512.47	-19
1515.3	-28.5
1518.13	-27.5
1520.96	-20.5
1523.78	-29
1526.6	-16
1529.43	-10
1532.24	-27.5
1535.06	-9
1537.88	-16
1540.69	-31
1543.5	-25
1546.3	-3.5
1549.11	-8
1551.91	-22
1554.72	-22
1557.51	-12.5
1560.31	-21.5
1563.11	-19
1565.9	-19
1568.69	-24
1571.48	-16.5
1574.26	-20
1577.05	-30.5
1579.83	-26.5
1582.61	-17
1585.39	-27
1588.16	-23
1590.94	-21
1593.71	-22.5
1596.48	-27.5
1599.24	-24.5
1602.01	-24
1604.77	-30
1607.53	-19.5
1610.29	-23.5
1613.05	-30.5
1615.8	-32
1618.55	-30
1621.3	-21.5
1624.05	-25
1626.79	-21
1629.54	-25
1632.28	-25
1635.02	-34
1637.75	-15
1640.49	-18.5
1643.22	-2.5
1645.95	2
1648.68	1
1651.41	23
1654.13	36
1656.85	45
1659.57	21
1662.29	15
1665.01	3.5
1667.72	-7.5
1670.43	-18
1673.14	-18
1675.85	-14.5
1678.55	-25.5
1681.25	-24
1683.95	-21
1686.65	-24.5
1689.35	-15
1692.04	-24
1694.74	-33
1697.43	-27
1700.11	-20.5
1702.8	-25
1705.48	-25
1708.16	-32
1710.84	-44
1713.52	-28.5
1716.2	-31
1718.87	-16.5
1721.54	-26
1724.21	-38
1726.88	-33
1729.54	-23
1732.2	-10
1734.86	-13
1737.52	-23.5
1740.18	-24
1742.83	-13.5
1745.48	0
1748.13	-13
1750.78	-10.5
1753.43	-13.75
1756.07	-23
1758.71	-26
1761.35	-8.5
1763.99	-29
1766.62	-22.5
1769.25	-40
1771.89	-27
1774.51	-22.5
1777.14	-26.5
1779.76	-31.5
1782.39	-32.5
1785.01	-33
1787.63	-40.5
1790.24	-28.5
1792.86	-30.5
1795.47	-22.5
1798.08	-32.5
1800.68	-30.5
1803.29	-30
1805.89	-18.5
1808.49	-28.5
1811.09	-25
1813.69	-29
1816.29	-26
1818.88	-26.5
1821.47	-26
1824.06	-41
1826.65	-25.5
1829.23	-52
1831.81	-17
1834.39	-29
1836.97	-24
1839.55	-35.5
1842.12	-37
1844.69	-45
1847.26	-32
1849.83	-19
1852.4	-30.5
1854.96	-40
1857.52	-28.5
1860.08	-30
1862.64	-20
1865.19	-19
1867.75	-26
1870.3	-26
1872.85	-30.5
1875.4	-24.5
1877.94	-17.5
1880.48	-23.5
1883.02	-22
1885.56	-40
1888.1	-31
1890.63	-15
1893.17	-25
1895.7	-40.5
1898.23	-31
1900.75	-35
1903.28	-28
1905.8	-23
1908.32	-25
1910.84	-23
1913.35	-33
1915.87	-34
1918.38	-27
1920.89	-19.5
1923.4	-25.5
1925.9	-30.5
1928.41	-39.5
1930.91	-28
1933.41	-27
1935.9	-28
1938.4	-20.5
1940.89	-22
1943.38	-34.5
1945.87	-31
1948.36	-16.5
1950.84	-35
1953.33	-39
1955.81	-28
1958.29	-34
1960.76	-20
1963.24	-25.5
1965.71	-17
1968.18	-29.5
1970.65	-45
1973.12	-34.5
1975.58	-35
1978.04	-39
1980.5	-19.5
1982.96	-43
1985.42	-39.5
1987.87	-22
1990.32	-20
1992.78	-24
1995.22	-31
1997.67	-35.9095
2000.11	-34.168
2002.56	-31.2928
2004.99	-19.7025
2007.43	-21.9806
2009.87	-34.178
2012.3	-32.6929
2014.73	-39.3485
2017.16	-28.2698
2019.59	-29.2764
2022.02	-22.7627
2024.44	-17.8824
2026.86	-23.8408
2029.28	-34.8031
2031.7	-31.0053
2034.11	-19.5921
2036.53	-28.4681
2038.94	-30.2929
2041.35	-21.9165
2043.76	-29.4093
2046.16	-24.2094
2048.56	-20.8565
2050.97	-24.1644
2053.36	-26.4696
2055.76	-24.9813
2058.16	-20.7996
2060.55	-20.7122
2062.94	-21.8531
2065.33	-21.9877
2067.72	-25.3626
2070.1	-18.1923
2072.49	-12.9392
2074.87	-22.5667
2077.25	-10.8401
2079.62	-26.1773
2081.38	-11.5
2083.86	-27
2086.34	-10
2088.81	-24.5
2091.29	-16.5
2093.76	-32
2096.23	-22
2098.7	-17
2101.17	-26
2103.64	-8.5
2106.1	-29
2108.56	-40
2111.03	-23.5
2113.48	-17
2115.94	-23
2118.4	-18.5
2120.85	-16
2123.3	-15
2125.76	-5
2128.2	-20
2130.65	-19
2133.1	-17
2135.54	-27
2137.98	-17.5
2140.42	-9
2142.86	-17
2145.3	-20.5
2147.73	-16
2150.16	-22
2152.6	-11.5
2155.02	-12
2157.45	-5
2159.88	-9.5
2162.3	-19.5
2164.73	-47
2167.15	-26
2169.57	-12.5
2171.98	-21
2174.4	-16
2176.81	-25
2179.22	-22.5
2181.63	-20.5
2184.04	-17
2186.45	-30
2188.86	-13.5
2191.26	-27
2193.66	-34
2196.06	-45
2198.46	-26.5
2200.85	-22.5
2203.25	-26
2205.64	-29
2208.03	-30
2210.42	-30
2212.81	-33
2215.2	-24.5
2217.58	-27
2219.96	-33
2222.34	-23
2224.72	-29.5
2227.1	-34.5
2229.47	-29
2231.85	-35.5
2234.22	-37
2236.59	-22.5
2238.96	-24.5
2241.33	-41.5
2243.69	-39
2246.05	-31
2248.41	-23.5
2250.77	-17.5
2253.13	-25.5
2255.49	-23
2257.84	-39
2260.2	-43.5
2262.55	-29.5
2264.9	-41
2267.24	-28.5
2269.59	-32.5
2271.93	-30
2274.28	-37.5
2276.62	-35.5
2278.96	-27
2281.29	-18.5
2283.63	-35
2285.96	-38.5
2288.29	-46
2290.62	-35.5
2292.95	-20
2295.28	-35
2297.6	-25
2299.93	-39
2302.25	-27
2304.57	-26
2306.89	-29
2309.2	-30.5
2311.52	-33
2313.83	-23
2316.14	-32
2318.45	-38
2320.76	-30.5
2323.06	-39
2325.37	-26
2327.67	-28
2329.97	-28.5
2332.27	-37.5
2334.57	-33
2336.86	-38
2339.16	-35
2341.45	-34
2343.74	-23.5
2346.03	-39
2348.31	-34
2350.6	-37.5
2352.88	-30
2355.17	-40
2357.45	-34
2359.72	-38
2362	-33
2364.28	-38
2366.55	-39
2368.82	-43
2371.09	-32
2373.36	-44
2375.62	-36.5
2377.89	-61
2380.15	-36
2382.41	-35
2384.67	-28.5
2386.93	-35
2389.18	-37
2391.44	-36.5
2393.69	-26
2395.94	-28
2398.19	-22.5
2400.44	-30.5
2402.68	-35
2404.93	-36
2407.17	-56
2409.41	-25.5
2411.65	-14
2413.89	-25
2416.12	-46
2418.35	-27
2420.59	-27
2422.82	-18.5
2425.04	-28
2427.27	-59
2429.5	-33
2431.72	-34
2433.94	-26
2436.16	-45.5
2438.38	-34.5
2440.59	-38
2442.81	-50
2445.02	-28
2447.23	-27
2449.44	-39
2451.65	-32
2453.86	-39.5
2456.06	-28.5
2458.26	-25
2460.46	-30.5
2462.66	-36
2464.86	-59
2467.06	-34
2469.25	-40
2471.44	-22.5
2473.63	-39.5
2475.82	-33
2478.01	-31.5
2480.19	-45
2482.38	-30
2484.56	-27.5
2486.74	-22.5
2488.92	-42
2491.1	-50
2493.27	-28
2495.45	-23
2497.62	-36
2499.79	-41
2501.96	-39
2504.12	-51
2506.29	-33.5
2508.45	-37
2510.61	-27
2512.77	-39.5
2514.93	-53
2517.09	-42.5
2519.24	-36
2521.4	-35.5
2523.55	-24.5
2525.7	-36.5
2527.84	-43
2529.99	-28
2532.14	-39
2534.28	-25.5
2536.42	-33
2538.56	-37
2540.7	-39.5
2542.83	-37
2544.97	-28
2547.1	-26.5
2549.23	-54
2551.36	-32.5
2553.49	-27.5
2555.61	-21.5
2557.74	-29.5
2559.86	-31
2561.98	-34.5
2564.1	-46
2566.22	-32
2568.33	-27.5
2570.45	-24.5
2572.56	-35
2574.67	-32
2576.78	-73
2578.89	-25
2580.99	-38.5
2583.1	-33
2585.2	-29
2587.3	-31.5
2589.4	-24
2591.5	-15
2593.59	-34
2595.68	-37.5
2597.78	-35
2599.87	-44
2601.96	-30
2604.04	-44.5
2606.13	-31.5
2608.21	-32.5
2610.29	-45.5
2612.37	-40
2614.45	-37
2616.53	-31
2618.6	-31.5
2620.68	-39.5
2622.75	-32.5
2624.82	-48
2626.89	-51
2628.96	-39
2631.02	-58
2633.08	-32
2635.15	-43
2637.21	-29
2639.26	-26
2641.32	-38
2643.38	-35
2645.43	-28.5
2647.48	-37
2649.53	-30
2651.58	-46
2653.63	-28
2655.67	-36.5
2657.71	-60
2659.76	-30
2661.8	-52
2663.83	-30.5
2665.87	-26.5
2667.91	-42.5
2669.94	-47
2671.97	-44
2674	-33
2676.03	-40
2678.06	-23.5
2680.08	-24.5
2682.1	-32
2684.12	-50
2686.14	-38.5
2688.16	-35.5
2690.18	-44.5
2692.19	-34.5
2694.21	-31.5703
2696.22	-33.856
2698.23	-26.7729
2700.24	-36.2264
2702.24	-29.3306
2704.25	-15.3525
2706.25	-21.4415
2708.25	-38.2105
2710.25	-45.3136
2712.25	-20.6983
2714.25	-22.7331
2716.24	-31.1322
2718.23	-43.0461
2720.23	-33.0766
2722.22	-23.3584
2724.2	-22.8694
2726.19	-31.1289
2728.18	-24.8674
2730.16	-18.7954
2732.14	-23.6531
2734.12	-30.1326
2736.1	-42.0937
2738.07	-37.9008
2740.05	-28.1204
2742.02	-19.6957
2743.99	-28.2281
2745.96	-32.7688
2747.93	-26.5437
2749.9	-7.8476
2751.86	-22.1988
2753.83	-23.8941
2755.79	-22.7374
2757.75	-15.7013
2759.71	-19.2051
2761.66	-23.3479
2763.63	-29
2765.69	-7.5
2767.75	-8.5
2769.81	-19
2771.87	-10
2773.92	-19
2775.97	-25
2778.03	-18
2780.08	-10
2782.12	-3
2784.17	-12.5
2786.22	-29.5
2788.26	-26
2790.31	-10.5
2792.35	-7
2794.39	-24
2796.43	-40.5
2798.46	-21.5
2800.5	-21
2802.54	-20
2804.57	-9.5
2806.6	-14
2808.63	-35.5
2810.66	-17
2812.69	-18
2814.71	-12
2816.74	-28
2818.76	-20.5
2820.78	-35.5
2822.8	-25.5
2824.82	-9
2826.84	-4
2828.86	-14
2830.87	-21.5
2832.88	-25
2834.9	-28
2836.91	-15
2838.91	-13
2840.92	-16.5
2842.93	-19.5
2844.93	-22
2846.93	-31
2848.94	-11
2850.94	-2
2852.94	-14
2854.93	-21.5
2856.93	-14
2858.92	-2.5
2860.92	-16
2862.91	-5.5
2864.9	-17.5
2866.89	-22.5
2868.87	-25
2870.86	-12.5
2872.84	-29
2874.83	-26
2876.81	-22.5
2878.79	-29
2880.77	-8.5
2882.75	-26
2884.72	-7.5
2886.7	-22
2888.67	-18
2890.64	-33
2892.61	-26
2894.58	-16
2896.55	-18
2898.51	-27
2900.48	-36
2902.44	-24.5
2904.4	-26
2906.36	-8
2908.32	-12.5
2910.28	-17.5
2912.23	-25
2914.19	-39
2916.14	-20.5
2918.09	-8
2920.04	-15.5
2921.99	-26.5
2923.94	-23
2925.88	-48
2927.83	-18.5
2929.77	-22
2931.71	-25
2933.65	-29.5
2935.59	-21.5
2937.53	-21
2939.46	-16
2941.4	-33.5
2943.33	-38.5
2945.26	-27.5
2947.19	-41
2949.12	-22
2951.05	-25.5
2952.98	-28.5
2954.9	-34
2956.82	-51
2958.74	-29
2960.66	-25
2962.58	-21.5
2964.5	-20.5
2966.42	-37.5
2968.33	-47.5
2970.24	-32
2972.15	-22.5
2974.06	-17
2975.97	-49
2977.88	-38
2979.79	-31.5
2981.69	-31
2983.59	-32.5
2985.49	-21
2987.39	-28
2989.29	-37
2991.19	-38
2993.09	-19.5
2994.98	-20
2996.87	-33.5
2998.77	-41
3000.66	-49
3002.54	-31
3004.43	-29.5
3006.32	-26.5
3008.2	-34.5
3010.08	-26.5
3011.97	-47
3013.85	-20
3015.72	-21
3017.6	-29
3019.48	-35
3021.35	-33
3023.23	-41
3025.1	-22
3026.97	-21
3028.84	-34
3030.7	-36
3032.57	-42.5
3034.43	-14
3036.3	-30
3038.16	-19
3040.02	-35.5
3041.88	-44
3043.73	-48
3045.59	-17.5
3047.44	-27
3049.3	-35.5
3051.15	-37
3053	-37
3054.85	-42
3056.7	-29.5
3058.54	-31
3060.39	-29
3062.23	-39
3064.07	-37
3065.91	-24.5
3067.75	-38
3069.59	-28
3071.42	-49
3073.26	-38
3075.09	-40
3076.92	-29.5
3078.75	-18
3080.58	-30.5
3082.41	-43.5
3084.24	-40
3086.06	-31
3087.88	-20
3089.71	-20
3091.53	-46
3093.34	-43
3095.16	-42
3096.98	-38.5
3098.79	-9.5
3100.61	-42
3102.42	-45
3104.23	-48
3106.04	-34.5
3107.85	-26
3109.65	-28
3111.46	-35
3113.26	-35
3115.06	-44
3116.86	-48
3118.66	-29
3120.46	-31.5
3122.26	-35
3124.05	-49.5
3125.84	-32
3127.64	-45
3129.43	-18.5
3131.22	-30
3133	-32.5
3134.79	-32
3136.58	-33
3138.36	-40
3140.14	-21
3141.92	-25
3143.7	-52.5
3145.48	-36
3147.26	-40
3149.03	-18.5
3150.8	-40
3152.58	-37.5
3154.35	-45
3156.12	-33.5
3157.88	-29.5
3159.65	-29
3161.42	-26.5
3163.18	-43
3164.94	-39
3166.7	-41
3168.46	-21.5
3170.22	-26
3171.98	-40
3173.73	-46
3175.49	-41
3177.24	-25.5
3178.99	-27
3180.74	-27.5
3182.49	-33.5
3184.23	-42
3185.98	-40
3187.72	-28.5
3189.47	-38
3191.21	-25.5
3192.95	-33
3194.69	-47
3196.42	-38.5
3198.16	-24
3199.89	-31