File: raman_enhancement_factor/Renata_Raman_12_12_2025/Oil_BHT_0_8_50Xlens_785_1200grating_25%_acc3_acq3s_AE50000_1.txt
100.582	364
104.437	347
108.287	333.5
112.136	318
115.981	336
119.823	296
123.663	289
127.499	274
131.333	290.5
135.163	277
138.992	278
142.816	250
146.637	255
150.457	211.5
154.273	215.5
158.086	210.5
161.896	208
165.703	185.5
169.507	174
173.309	165
177.107	167
180.902	154
184.695	140.5
188.485	133
192.272	111
196.055	124
199.837	134
203.615	166.5
207.39	126.5
211.162	124
214.932	127.5
218.697	133
222.462	133
226.222	118.5
229.98	118.5
233.734	97
237.486	114.5
241.235	141
244.981	161
248.725	213
252.465	182
256.203	104.5
259.937	137
263.669	114.5
267.398	115.5
271.123	107
274.846	102
278.566	88
282.283	105.5
285.998	103
289.71	97.5
293.418	77.5
297.123	90
300.826	85.5
304.526	81.5
308.223	76
311.917	68.5
315.609	63
319.297	76
322.982	66
326.665	82.5
330.345	79
334.022	52.5
337.696	69
341.367	70
345.036	88
348.701	76.5
352.363	61
356.023	56
359.68	52
363.334	67.5
366.986	70.5
370.633	69
374.279	53
377.921	37
381.562	42
385.198	51
388.832	55.5
392.463	53.5
396.092	52.5
399.717	39
403.34	48
406.96	53.5
410.576	40
414.191	42
417.802	47
421.41	45.5
425.016	53
428.619	30
432.218	35
435.815	24
439.41	33
443.001	43
446.59	35
450.175	33
453.758	41.5
457.339	28
460.916	40.5
464.49	42
468.062	29
471.631	41
475.196	17
478.76	20.5
482.32	43
485.877	31
489.432	40.5
492.984	34
496.533	32
500.079	11
503.622	31
507.163	38
510.701	29
514.236	29
517.768	24.5
521.297	32.5
524.823	30.5
528.348	27
531.868	17.5
535.386	38.5
538.902	20
542.414	25.5
545.924	8
549.431	26
552.935	20.5
556.436	26
559.935	-3
563.431	9
566.924	22
570.414	25.5
573.901	23
577.385	3.5
580.867	11
584.347	16.5
587.822	26
591.296	14.5
594.767	19
598.234	17
601.699	27
605.161	8
608.621	37
612.078	25
615.532	11
618.983	14
622.431	-4
625.877	17
629.32	16
632.76	7.5
636.197	16
639.632	-4
643.064	8
646.493	19
649.919	18.5
653.342	3.5
656.764	4
660.181	-12
663.596	-9
667.009	-3
670.419	0.5
673.826	15
677.23	12
680.631	6
684.03	11.5
687.426	15
690.819	16.5
694.21	15
697.597	12
700.982	10
704.364	4
707.744	6
711.12	11
714.495	14.5
717.865	2
721.234	18.5
724.6	25
727.962	15
731.323	21.5
734.681	6
738.036	13
741.387	12
744.736	6
748.083	9
751.427	-2
754.768	-7
758.107	13.5
761.443	13.5
764.776	7.5
768.106	27.5
771.434	1
774.758	8.5
778.081	-2.5
781.399	13.5
784.716	13.5
788.03	11.5
791.341	-7
794.65	-21
797.956	7
801.259	11
804.559	24.5
807.857	4
811.152	-2
814.444	5
817.733	13.5
821.02	25.5
824.305	26.5
827.586	19
830.865	26
834.141	29
837.414	37
840.685	46.5
843.952	38
847.218	33
850.48	32
853.74	39.5
856.997	44.5
860.252	38.5
863.504	30
866.753	33
869.999	32
873.243	33
876.484	31
879.722	17
882.958	25
886.191	33
889.421	14
892.649	32
895.874	35
899.096	24
902.315	15
905.533	19
908.747	22.5
911.958	21.5
915.167	17
918.374	13
921.577	13
924.778	20
927.977	27
931.173	37.5
934.365	13
937.556	25
940.743	10
943.928	22.5
947.11	30.5
950.29	25.5
953.467	11
956.641	16
959.813	13
962.982	5
966.149	38
969.312	33
972.473	14
975.631	22
978.787	23
981.94	12
985.091	13.5
988.239	12
991.384	-1
994.527	7
997.666	9
1000.8	14
1003.94	7
1007.07	8
1010.2	11
1013.33	0
1016.45	19
1019.57	24
1022.69	10.5
1025.81	8.5
1028.92	-2
1032.03	18.5
1035.14	24.5
1038.25	9
1041.35	18.5
1044.45	5
1047.55	1
1050.64	11
1053.74	24.5
1056.83	24
1059.91	36.5
1063	16
1066.08	16
1069.16	34.5
1072.24	41
1075.31	37
1078.38	31
1081.45	31.5
1084.52	24.5
1087.58	20
1090.64	29
1093.7	20
1096.76	14.5
1099.81	21
1102.86	25
1105.91	18
1108.96	8
1112	14
1115.04	7.5
1118.08	21.5
1121.11	9.5
1124.15	14
1127.18	10.5
1130.2	-8
1133.23	-10
1136.25	11
1139.27	12
1142.29	-4
1145.3	3.5
1148.32	-4.5
1151.33	3.57393
1154.33	-0.532655
1157.34	9.99795
1160.34	8.41825
1163.34	-1.73057
1166.33	-14.9009
1169.33	3.19834
1172.32	3.51604
1175.31	6.16009
1178.3	12.3924
1181.28	3.5047
1184.26	9.14195
1187.24	2.79321
1190.22	8.80787
1193.19	14.5367
1196.16	2.54569
1199.13	13.9045
1202.09	11.6466
1205.06	14.1051
1208.02	14.1743
1210.98	13.2583
1213.93	10.3324
1216.89	0.50025
1219.84	10.1698
1222.78	24.5258
1225.73	22.0452
1228.67	26.7515
1231.61	13.4395
1234.55	7.53603
1237.49	27.1922
1240.42	33.0242
1243.35	21.4167
1246.28	25.4744
1249.2	55.5934
1252.12	46.6921
1254.74	45
1257.76	53
1260.79	50
1263.81	50
1266.82	75
1269.84	64.5
1272.85	58
1275.86	56
1278.87	44
1281.88	48
1284.88	49.5
1287.89	60.5
1290.89	56
1293.88	49.5
1296.88	58
1299.87	64
1302.86	81
1305.85	59
1308.84	49
1311.83	36.5
1314.81	50
1317.79	60.5
1320.77	56
1323.74	33
1326.72	35
1329.69	23
1332.66	41
1335.62	38
1338.59	33.5
1341.55	28
1344.51	35
1347.47	35
1350.43	44
1353.38	35
1356.33	43
1359.28	36
1362.23	33
1365.17	38
1368.12	35.5
1371.06	47
1373.99	37.5
1376.93	15
1379.86	19
1382.8	33
1385.73	32
1388.65	23
1391.58	30
1394.5	28.5
1397.42	30.5
1400.34	43.5
1403.26	40.5
1406.17	20
1409.08	24
1411.99	15.5
1414.9	20.5
1417.81	42.5
1420.71	46
1423.61	25
1426.51	34.5
1429.41	59.5
1432.3	69
1435.2	84.5
1438.09	80
1440.97	73
1443.86	56.5
1446.74	51
1449.63	54
1452.5	39.5
1455.38	36.5
1458.26	31
1461.13	39
1464	42.5
1466.87	30
1469.73	33.5
1472.6	22
1475.46	-3
1478.32	5.5
1481.18	-1
1484.03	15
1486.89	3.5
1489.74	-11.5
1492.59	7
1495.43	-6.5
1498.28	9
1501.12	5.5
1503.96	2
1506.8	-6
1509.64	3
1512.47	19.5
1515.3	8
1518.13	1
1520.96	-5.5
1523.78	-2
1526.6	-20.5
1529.43	3
1532.24	12.5
1535.06	2
1537.88	-8
1540.69	-24
1543.5	-6.5
1546.3	3.5
1549.11	1
1551.91	-10
1554.72	0
1557.51	-5
1560.31	0
1563.11	-2
1565.9	-1
1568.69	-9.5
1571.48	-12
1574.26	-23
1577.05	0
1579.83	13
1582.61	-8.5
1585.39	-13.5
1588.16	-14
1590.94	-22
1593.71	4.5
1596.48	-0.5
1599.24	-12
1602.01	-22
1604.77	-18
1607.53	-14
1610.29	-2.5
1613.05	3
1615.8	-8.5
1618.55	-22.5
1621.3	-5
1624.05	3.5
1626.79	4
1629.54	-8.5
1632.28	-11.5
1635.02	-9
1637.75	-17
1640.49	11
1643.22	12
1645.95	18
1648.68	12.5
1651.41	34.5
1654.13	44
1656.85	46
1659.57	30
1662.29	17.5
1665.01	14
1667.72	-12
1670.43	5.5
1673.14	1.5
1675.85	-10
1678.55	-25.5
1681.25	-6
1683.95	-10.5
1686.65	-5
1689.35	-3
1692.04	-12
1694.74	-13
1697.43	-28
1700.11	-15
1702.8	-9
1705.48	-16
1708.16	-16.5
1710.84	-22
1713.52	-12
1716.2	-17
1718.87	-7
1721.54	-19
1724.21	-28.5
1726.88	-23
1729.54	-12
1732.2	-11.5
1734.86	0
1737.52	-21.5
1740.18	-14.5
1742.83	-12
1745.48	-26
1748.13	6
1750.78	-0.5
1753.43	1.5
1756.07	-13
1758.71	-26
1761.35	-1.5
1763.99	10
1766.62	-21
1769.25	-14.5
1771.89	-26
1774.51	-17
1777.14	-17
1779.76	-3.5
1782.39	-24.5
1785.01	-42
1787.63	-19
1790.24	-33
1792.86	-13
1795.47	-19
1798.08	-15.5
1800.68	-26.5
1803.29	-28
1805.89	-18
1808.49	-12.5
1811.09	-26
1813.69	-22.5
1816.29	-23
1818.88	-6
1821.47	-2.5
1824.06	-15.5
1826.65	-39.5
1829.23	-19.5
1831.81	-27
1834.39	-23
1836.97	-16
1839.55	-13.5
1842.12	-22.5
1844.69	-15
1847.26	-29
1849.83	-10
1852.4	-16
1854.96	-22.5
1857.52	-26.5
1860.08	-23.5
1862.64	-21.5
1865.19	-9.5
1867.75	-9.5
1870.3	-22.5
1872.85	-21.5
1875.4	-21.5
1877.94	-11
1880.48	-20
1883.02	-33
1885.56	-26
1888.1	-25
1890.63	-19
1893.17	-23.5
1895.7	-22.5
1898.23	-33
1900.75	-28
1903.28	-41
1905.8	-16
1908.32	-6
1910.84	-16
1913.35	-18
1915.87	-31
1918.38	-33
1920.89	-16.5
1923.4	-22
1925.9	-27.5
1928.41	-32
1930.91	-38.5
1933.41	-13
1935.9	0.5
1938.4	-10
1940.89	-30.5
1943.38	-35
1945.87	-29
1948.36	-22
1950.84	-33
1953.33	-12
1955.81	-25.5
1958.29	-51
1960.76	-22.5
1963.24	-23
1965.71	-20
1968.18	-22
1970.65	-31
1973.12	-33
1975.58	-21
1978.04	-12
1980.5	-25
1982.96	-14
1985.42	-46
1987.87	-27
1990.32	-41
1992.78	-16.5
1995.22	-16
1997.67	-31.9333
2000.11	-31.0755
2002.56	-40.8257
2004.99	-4.89074
2007.43	-29.4908
2009.87	-15.7008
2012.3	-32.0599
2014.73	-23.6103
2017.16	-30.9819
2019.59	-18.9689
2022.02	-26.9977
2024.44	-26.6862
2026.86	-29.5175
2029.28	-29.3324
2031.7	-24.6826
2034.11	-24.9484
2036.53	-11.8842
2038.94	-18.6048
2041.35	-30.9626
2043.76	-25.4456
2046.16	-20.8721
2048.56	-14.1066
2050.97	-21.4296
2053.36	-35.5112
2055.76	-30.6143
2058.16	-23.4155
2060.55	-18.8807
2062.94	-22.4351
2065.33	-16.1403
2067.72	-19.4086
2070.1	-12.1822
2072.49	-17.7626
2074.87	-12.5181
2077.25	-20.9476
2079.62	-14.1947
2081.38	-18
2083.86	-19.5
2086.34	-28
2088.81	-25
2091.29	-22
2093.76	-22
2096.23	-16.5
2098.7	-17.5
2101.17	-22
2103.64	-11
2106.1	-5
2108.56	-4
2111.03	-19.5
2113.48	-29
2115.94	-19.5
2118.4	-24
2120.85	-14.5
2123.3	-22
2125.76	-32
2128.2	-22
2130.65	-13.5
2133.1	-2
2135.54	-6
2137.98	-7
2140.42	-13
2142.86	-26.5
2145.3	-7
2147.73	-4
2150.16	-16
2152.6	-10.5
2155.02	-21
2157.45	-14.5
2159.88	-14
2162.3	-9
2164.73	-13.5
2167.15	-26.5
2169.57	-38.5
2171.98	-31
2174.4	-4.5
2176.81	-21
2179.22	-18
2181.63	-28
2184.04	-32
2186.45	-16
2188.86	-10
2191.26	-19.5
2193.66	-21.5
2196.06	-35
2198.46	-25
2200.85	-31
2203.25	-32
2205.64	-30.5
2208.03	-27.5
2210.42	-32
2212.81	-23
2215.2	-34
2217.58	-21.5
2219.96	-29
2222.34	-31
2224.72	-44.5
2227.1	-13
2229.47	-28
2231.85	-30
2234.22	-37
2236.59	-26
2238.96	-22
2241.33	-33
2243.69	-20.5
2246.05	-25.5
2248.41	-28
2250.77	-44
2253.13	-35
2255.49	-29
2257.84	-24
2260.2	-23.5
2262.55	-34.5
2264.9	-29
2267.24	-32
2269.59	-12
2271.93	-24
2274.28	-32.5
2276.62	-34
2278.96	-36.5
2281.29	-35
2283.63	-30.5
2285.96	-12
2288.29	-24
2290.62	-35
2292.95	-33
2295.28	-24
2297.6	-31.5
2299.93	-19.5
2302.25	-41
2304.57	-32
2306.89	-38
2309.2	-23
2311.52	-18.5
2313.83	-41.5
2316.14	-42
2318.45	-22.5
2320.76	-26
2323.06	-20
2325.37	-18.5
2327.67	-39.5
2329.97	-27.5
2332.27	-55
2334.57	-40
2336.86	-25.5
2339.16	-37.5
2341.45	-31
2343.74	-36
2346.03	-17
2348.31	-12.5
2350.6	-28
2352.88	-32
2355.17	-37
2357.45	-38
2359.72	-34
2362	-19.5
2364.28	-37.5
2366.55	-42
2368.82	-36
2371.09	-25
2373.36	-31
2375.62	-21.5
2377.89	-14
2380.15	-43.5
2382.41	-36
2384.67	-36
2386.93	-19
2389.18	-21.5
2391.44	-42
2393.69	-30
2395.94	-54
2398.19	-25.5
2400.44	-21.5
2402.68	-25.5
2404.93	-23
2407.17	-37
2409.41	-25
2411.65	-27
2413.89	-18.5
2416.12	-26
2418.35	-42
2420.59	-36
2422.82	-38
2425.04	-18.5
2427.27	-37.5
2429.5	-28
2431.72	-38
2433.94	-39
2436.16	-11.5
2438.38	-35.5
2440.59	-30.5
2442.81	-46
2445.02	-29
2447.23	-44
2449.44	-18.5
2451.65	-23
2453.86	-29.5
2456.06	-40
2458.26	-35
2460.46	-28.5
2462.66	-21
2464.86	-28.5
2467.06	-35.5
2469.25	-32
2471.44	-33
2473.63	-27
2475.82	-26
2478.01	-35.5
2480.19	-38
2482.38	-38
2484.56	-36
2486.74	-30
2488.92	-32
2491.1	-44
2493.27	-29
2495.45	-44
2497.62	-42
2499.79	-27.5
2501.96	-25.5
2504.12	-44
2506.29	-31.5
2508.45	-35
2510.61	-23.5
2512.77	-21
2514.93	-36
2517.09	-31
2519.24	-35
2521.4	-36
2523.55	-45
2525.7	-33
2527.84	-36
2529.99	-35.5
2532.14	-36
2534.28	-28.5
2536.42	-28.5
2538.56	-35.5
2540.7	-30
2542.83	-48.5
2544.97	-31
2547.1	-44
2549.23	-25.5
2551.36	-33
2553.49	-49
2555.61	-39
2557.74	-29
2559.86	-27
2561.98	-26
2564.1	-23
2566.22	-43
2568.33	-53
2570.45	-36
2572.56	-21
2574.67	-34.5
2576.78	-44
2578.89	-44
2580.99	-40.5
2583.1	-27
2585.2	-19.5
2587.3	-25.5
2589.4	-44
2591.5	-22
2593.59	-33
2595.68	-26.5
2597.78	-26.5
2599.87	-31
2601.96	-49
2604.04	-51
2606.13	-35
2608.21	-24
2610.29	-21
2612.37	-41
2614.45	-41
2616.53	-31
2618.6	-28
2620.68	-23
2622.75	-57
2624.82	-44
2626.89	-41
2628.96	-44
2631.02	-22
2633.08	-26
2635.15	-43.5
2637.21	-50
2639.26	-43
2641.32	-34
2643.38	-18
2645.43	-33
2647.48	-32
2649.53	-40.5
2651.58	-47
2653.63	-25
2655.67	-14
2657.71	-35
2659.76	-45
2661.8	-39.5
2663.83	-27.5
2665.87	-28
2667.91	-18.5
2669.94	-34
2671.97	-24.5
2674	-33
2676.03	-42
2678.06	-24
2680.08	-31
2682.1	-31
2684.12	-41
2686.14	-39
2688.16	-27
2690.18	-23
2692.19	-29
2694.21	-36.6356
2696.22	-40.1711
2698.23	-39.1053
2700.24	-18.3412
2702.24	-34.3422
2704.25	-33.375
2706.25	-41.2709
2708.25	-27.6397
2710.25	-41.4204
2712.25	-26.3059
2714.25	-23.1449
2716.24	-34.435
2718.23	-27.724
2720.23	-28.7444
2722.22	-17.2547
2724.2	-19.91
2726.19	-25.821
2728.18	-27.3622
2730.16	-28.7245
2732.14	-25.0919
2734.12	-29.2314
2736.1	-29.6697
2738.07	-26.4489
2740.05	-27.3526
2742.02	-24.1339
2743.99	-16.3235
2745.96	-26.9182
2747.93	-16.8855
2749.9	-17.487
2751.86	-19.6411
2753.83	-35.4377
2755.79	-18.7421
2757.75	-12.9221
2759.71	-18.9369
2761.66	-34.1248
2763.63	-13
2765.69	-18
2767.75	0
2769.81	-6
2771.87	-21
2773.92	-18.5
2775.97	-17.5
2778.03	-18
2780.08	-7
2782.12	-8.5
2784.17	-39
2786.22	-32
2788.26	-24.5
2790.31	-14.5
2792.35	-16
2794.39	-16
2796.43	-22
2798.46	-27
2800.5	-12.5
2802.54	-13.5
2804.57	-11
2806.6	-24.5
2808.63	-23.5
2810.66	-24
2812.69	-12
2814.71	-4.5
2816.74	-28
2818.76	-26
2820.78	-32
2822.8	-21.5
2824.82	-13
2826.84	-8.5
2828.86	-26
2830.87	-32
2832.88	-27
2834.9	-17.5
2836.91	-10.5
2838.91	-13
2840.92	-15.5
2842.93	-23
2844.93	-25
2846.93	-10.5
2848.94	-13.5
2850.94	-13.5
2852.94	-15.5
2854.93	-26
2856.93	-16.5
2858.92	-8.5
2860.92	-14
2862.91	-5
2864.9	-27.5
2866.89	-35.5
2868.87	-18.5
2870.86	-6
2872.84	-23
2874.83	-6
2876.81	-18.5
2878.79	-26.5
2880.77	-20
2882.75	-21
2884.72	-10.5
2886.7	-33
2888.67	-28
2890.64	-23
2892.61	-12
2894.58	-15
2896.55	-35
2898.51	-40
2900.48	-30
2902.44	-19.5
2904.4	-19.5
2906.36	-8
2908.32	-25.5
2910.28	-32.5
2912.23	-32.5
2914.19	-5
2916.14	-13
2918.09	-17.5
2920.04	-34
2921.99	-25
2923.94	-40.5
2925.88	-12
2927.83	-9
2929.77	-24
2931.71	-31.5
2933.65	-36
2935.59	-41.5
2937.53	-22
2939.46	-23
2941.4	-25.5
2943.33	-41.5
2945.26	-28
2947.19	-24
2949.12	-12.5
2951.05	-19
2952.98	-32.5
2954.9	-38
2956.82	-24
2958.74	-35
2960.66	-20.5
2962.58	-27
2964.5	-31
2966.42	-36.5
2968.33	-51
2970.24	-17
2972.15	-37
2974.06	-26
2975.97	-45.5
2977.88	-28.5
2979.79	-42.5
2981.69	-27.5
2983.59	-24.5
2985.49	-24
2987.39	-31
2989.29	-42
2991.19	-27
2993.09	-19.5
2994.98	-37
2996.87	-48
2998.77	-40.5
3000.66	-43.5
3002.54	-24
3004.43	-18
3006.32	-26.5
3008.2	-27.5
3010.08	-26
3011.97	-15.5
3013.85	-30.5
3015.72	-37
3017.6	-43
3019.48	-32
3021.35	-55
3023.23	-28
3025.1	-31
3026.97	-30
3028.84	-29.5
3030.7	-42.5
3032.57	-32
3034.43	-9
3036.3	-36
3038.16	-48
3040.02	-51.5
3041.88	-46.5
3043.73	-31
3045.59	-28
3047.44	-31
3049.3	-32
3051.15	-35.5
3053	-41.5
3054.85	-30
3056.7	-31
3058.54	-24
3060.39	-37
3062.23	-52.5
3064.07	-32.5
3065.91	-36
3067.75	-24
3069.59	-35
3071.42	-42
3073.26	-46
3075.09	-30
3076.92	-23
3078.75	-25.5
3080.58	-38
3082.41	-43.5
3084.24	-39
3086.06	-32.5
3087.88	-30
3089.71	-28
3091.53	-41
3093.34	-33.5
3095.16	-39
3096.98	-20
3098.79	-31
3100.61	-33.5
3102.42	-34.5
3104.23	-32.5
3106.04	-28.5
3107.85	-18.5
3109.65	-22.5
3111.46	-30.5
3113.26	-47
3115.06	-33
3116.86	-26.5
3118.66	-34.5
3120.46	-27
3122.26	-48
3124.05	-44.5
3125.84	-24.5
3127.64	-21
3129.43	-18.5
3131.22	-46
3133	-39.5
3134.79	-36.5
3136.58	-32
3138.36	-16
3140.14	-29
3141.92	-41
3143.7	-35.5
3145.48	-31.5
3147.26	-27
3149.03	-30
3150.8	-31
3152.58	-22
3154.35	-35
3156.12	-30.5
3157.88	-25
3159.65	-18
3161.42	-52
3163.18	-53
3164.94	-42.5
3166.7	-28
3168.46	-25
3170.22	-36
3171.98	-39
3173.73	-36
3175.49	-20
3177.24	-25.5
3178.99	-32
3180.74	-42
3182.49	-31
3184.23	-44
3185.98	-20.5
3187.72	-24.5
3189.47	-22
3191.21	-30
3192.95	-31
3194.69	-37
3196.42	-26
3198.16	-22
3199.89	-31