File: raman_enhancement_factor/Renata_Raman_12_12_2025/Oil_BHT_0_5_50Xlens_785_1200grating_25%_acc3_acq3s_AE50000_1.txt
100.582	520
104.437	500.5
108.287	448.5
112.136	469
115.981	438
119.823	391
123.663	375
127.499	379
131.333	364.5
135.163	358
138.992	345.5
142.816	296
146.637	310
150.457	293.5
154.273	272
158.086	257
161.896	241
165.703	246
169.507	228.5
173.309	219
177.107	220
180.902	192
184.695	199
188.485	182
192.272	171
196.055	191.5
199.837	186
203.615	179
207.39	194
211.162	173
214.932	191
218.697	182
222.462	156
226.222	164
229.98	150
233.734	160.5
237.486	161
241.235	182.5
244.981	204.5
248.725	266
252.465	239
256.203	149
259.937	177
263.669	168.5
267.398	135
271.123	139.5
274.846	125
278.566	147
282.283	130.5
285.998	128.5
289.71	112
293.418	100
297.123	113
300.826	99
304.526	96
308.223	104.5
311.917	84
315.609	83
319.297	98
322.982	81.5
326.665	105.5
330.345	83
334.022	85
337.696	81
341.367	84.5
345.036	77
348.701	77.5
352.363	73
356.023	75
359.68	86.5
363.334	82
366.986	80.5
370.633	67
374.279	60.5
377.921	76
381.562	65
385.198	77
388.832	50.5
392.463	62
396.092	57
399.717	63
403.34	55
406.96	66.5
410.576	59
414.191	54.5
417.802	53
421.41	58
425.016	40
428.619	45.5
432.218	40
435.815	43.5
439.41	50
443.001	44
446.59	60.5
450.175	51
453.758	41
457.339	43.5
460.916	45
464.49	47
468.062	46.5
471.631	49
475.196	37.5
478.76	28
482.32	33
485.877	44.5
489.432	26.5
492.984	35.5
496.533	30.5
500.079	39
503.622	38
507.163	45
510.701	38.5
514.236	25
517.768	39.5
521.297	27
524.823	32.5
528.348	32
531.868	30
535.386	15
538.902	18
542.414	17.5
545.924	39
549.431	21.5
552.935	26.5
556.436	18
559.935	8.5
563.431	22.5
566.924	22.5
570.414	23.5
573.901	10
577.385	0.5
580.867	20.5
584.347	25
587.822	23
591.296	27.5
594.767	25.5
598.234	8.5
601.699	24.5
605.161	19
608.621	23
612.078	16
615.532	13
618.983	1
622.431	18
625.877	15
629.32	20
632.76	26
636.197	11
639.632	12.5
643.064	9.5
646.493	22.5
649.919	13
653.342	17.5
656.764	-13
660.181	8
663.596	-2
667.009	5
670.419	14.5
673.826	-5
677.23	1
680.631	16
684.03	11.5
687.426	-2
690.819	-4.5
694.21	13
697.597	10.5
700.982	6.5
704.364	25.5
707.744	28
711.12	-4
714.495	20
717.865	32.5
721.234	32.5
724.6	23
727.962	15
731.323	18
734.681	10
738.036	25.5
741.387	17.5
744.736	13
748.083	11
751.427	12
754.768	20
758.107	15.5
761.443	20.5
764.776	11
768.106	14.5
771.434	12
774.758	15
778.081	25
781.399	27
784.716	15
788.03	7.5
791.341	15
794.65	30.5
797.956	18
801.259	31
804.559	14.5
807.857	15.5
811.152	16.5
814.444	19
817.733	44.5
821.02	26.5
824.305	28
827.586	44
830.865	54
834.141	55.5
837.414	68
840.685	57
843.952	62
847.218	50
850.48	61
853.74	65
856.997	52
860.252	55.5
863.504	54
866.753	54
869.999	64
873.243	58.5
876.484	73.5
879.722	58
882.958	58
886.191	56
889.421	69
892.649	52.5
895.874	35
899.096	16
902.315	48.5
905.533	44
908.747	47.5
911.958	54.5
915.167	36.5
918.374	45.5
921.577	49
924.778	40
927.977	42
931.173	47
934.365	46
937.556	38
940.743	34.5
943.928	48
947.11	43
950.29	38
953.467	38
956.641	38.5
959.813	54
962.982	44.5
966.149	51.5
969.312	62.5
972.473	56
975.631	45
978.787	32.5
981.94	20.5
985.091	34
988.239	19
991.384	16
994.527	29.5
997.666	30.5
1000.8	25
1003.94	20
1007.07	23.5
1010.2	24.5
1013.33	19
1016.45	27
1019.57	33
1022.69	22
1025.81	7
1028.92	33
1032.03	13
1035.14	23.5
1038.25	30.5
1041.35	28.5
1044.45	32.5
1047.55	20
1050.64	20.5
1053.74	32
1056.83	36
1059.91	51
1063	45
1066.08	41
1069.16	54
1072.24	56.5
1075.31	60
1078.38	60
1081.45	50
1084.52	40
1087.58	59.5
1090.64	54
1093.7	40.5
1096.76	36
1099.81	14
1102.86	28
1105.91	26
1108.96	22
1112	22
1115.04	13
1118.08	28.5
1121.11	22
1124.15	24
1127.18	-4.5
1130.2	9
1133.23	-2.5
1136.25	3
1139.27	2
1142.29	8
1145.3	5
1148.32	-5
1151.33	5.76815
1154.33	-7.9706
1157.34	22.5657
1160.34	2.82791
1163.34	1.13759
1166.33	7.68107
1169.33	1.27581
1172.32	1.53196
1175.31	11.8957
1178.3	-1.16642
1181.28	5.14783
1184.26	5.86089
1187.24	2.84104
1190.22	8.08838
1193.19	8.53624
1196.16	5.67793
1199.13	0.717823
1202.09	8.83906
1205.06	3.47915
1208.02	20.1315
1210.98	16.9714
1213.93	4.28116
1216.89	6.09707
1219.84	11.2381
1222.78	23.0935
1225.73	18.4386
1228.67	14.4136
1231.61	13.4518
1234.55	31.3853
1237.49	28.839
1240.42	26.0635
1243.35	33.0814
1246.28	47.3774
1249.2	55.8791
1252.12	74.6611
1254.74	62.5
1257.76	81.5
1260.79	88
1263.81	93
1266.82	91
1269.84	75
1272.85	59
1275.86	65
1278.87	51
1281.88	60
1284.88	73
1287.89	61.5
1290.89	60.5
1293.88	78
1296.88	98
1299.87	109
1302.86	93.5
1305.85	71
1308.84	56
1311.83	55.5
1314.81	50.5
1317.79	50.5
1320.77	38.5
1323.74	39
1326.72	25.5
1329.69	36
1332.66	32
1335.62	36
1338.59	31
1341.55	9
1344.51	19.5
1347.47	-2
1350.43	18.5
1353.38	24.5
1356.33	30.5
1359.28	19
1362.23	10
1365.17	27
1368.12	27
1371.06	27
1373.99	5
1376.93	6
1379.86	5
1382.8	19.5
1385.73	11.5
1388.65	4.5
1391.58	11
1394.5	12
1397.42	22
1400.34	18.5
1403.26	4
1406.17	0
1409.08	10.5
1411.99	11
1414.9	30
1417.81	23
1420.71	18.5
1423.61	26
1426.51	35.5
1429.41	66
1432.3	81
1435.2	107
1438.09	108
1440.97	91
1443.86	69
1446.74	94
1449.63	73
1452.5	75
1455.38	60.5
1458.26	37
1461.13	38
1464	46
1466.87	20.5
1469.73	16
1472.6	15
1475.46	-15
1478.32	1
1481.18	22.5
1484.03	15
1486.89	-6
1489.74	-12
1492.59	-7
1495.43	4
1498.28	-2.5
1501.12	0.5
1503.96	-14.5
1506.8	-22
1509.64	-15
1512.47	-3.5
1515.3	3
1518.13	0
1520.96	-18
1523.78	-20.5
1526.6	-12
1529.43	-8.5
1532.24	-3
1535.06	-18.5
1537.88	-25.5
1540.69	-16
1543.5	-4
1546.3	-2
1549.11	-14.5
1551.91	-23
1554.72	-12.5
1557.51	-22.5
1560.31	-10.5
1563.11	-6
1565.9	-16
1568.69	-18.5
1571.48	-19.5
1574.26	-7
1577.05	-3.5
1579.83	-12
1582.61	-22
1585.39	-30.5
1588.16	-21
1590.94	-16.5
1593.71	-12.5
1596.48	-16
1599.24	-21
1602.01	-22.5
1604.77	-20.5
1607.53	-9.5
1610.29	-7.5
1613.05	-16
1615.8	-16.5
1618.55	-19.5
1621.3	-29
1624.05	1
1626.79	-9
1629.54	-36
1632.28	-22
1635.02	-8
1637.75	1
1640.49	9.5
1643.22	12.5
1645.95	12
1648.68	22
1651.41	64
1654.13	75
1656.85	90
1659.57	64
1662.29	26
1665.01	6
1667.72	6.5
1670.43	0
1673.14	-6.5
1675.85	-19.5
1678.55	-45
1681.25	-39.5
1683.95	-18
1686.65	-10
1689.35	-32
1692.04	-48
1694.74	-28.5
1697.43	-22
1700.11	-20
1702.8	-7
1705.48	-26
1708.16	-21
1710.84	-25.5
1713.52	-11.5
1716.2	-11
1718.87	-33
1721.54	-31.5
1724.21	-23
1726.88	-13.5
1729.54	-8
1732.2	-16.5
1734.86	-9
1737.52	-22
1740.18	-22
1742.83	-12
1745.48	4.5
1748.13	-6
1750.78	-16
1753.43	-11.75
1756.07	-15
1758.71	-23
1761.35	-6
1763.99	-21
1766.62	-25
1769.25	-30.5
1771.89	-19.5
1774.51	-16
1777.14	-29
1779.76	-39
1782.39	-34.5
1785.01	-27
1787.63	-23.5
1790.24	-17
1792.86	-25.5
1795.47	-24
1798.08	-35.5
1800.68	-20
1803.29	-27
1805.89	-27.5
1808.49	-20
1811.09	-39
1813.69	-26.5
1816.29	-13
1818.88	-16
1821.47	-15
1824.06	-22
1826.65	-28
1829.23	-29
1831.81	-29.5
1834.39	-29
1836.97	-26
1839.55	-33
1842.12	-16
1844.69	-27
1847.26	-27
1849.83	-23.5
1852.4	-10
1854.96	-28
1857.52	-35
1860.08	-26.5
1862.64	-29.5
1865.19	-5.5
1867.75	-21.5
1870.3	-17
1872.85	-25
1875.4	-17.5
1877.94	-11.5
1880.48	-15
1883.02	-31
1885.56	-39.5
1888.1	-27.5
1890.63	-28.5
1893.17	-15.5
1895.7	-28.5
1898.23	-30
1900.75	-30
1903.28	-35
1905.8	-28.5
1908.32	-13.5
1910.84	-28.5
1913.35	-35.5
1915.87	-32
1918.38	-49
1920.89	-20.5
1923.4	-26
1925.9	-27
1928.41	-37
1930.91	-28.5
1933.41	-26.5
1935.9	-19
1938.4	-20
1940.89	-28.5
1943.38	-51
1945.87	-45
1948.36	-19.5
1950.84	-18.5
1953.33	-14.5
1955.81	-26
1958.29	-44
1960.76	-38.5
1963.24	-17.5
1965.71	-19
1968.18	-50
1970.65	-31.5
1973.12	-42
1975.58	-19
1978.04	-17
1980.5	-9
1982.96	-23
1985.42	-24
1987.87	-38.5
1990.32	-29
1992.78	-26.5
1995.22	-27
1997.67	-29.0238
2000.11	-56.3823
2002.56	-25.8404
2004.99	-17.6292
2007.43	-16.2495
2009.87	-27.219
2012.3	-31.4284
2014.73	-32.2778
2017.16	-18.9198
2019.59	-23.2926
2022.02	-26.3768
2024.44	-30.2979
2026.86	-36.3141
2029.28	-17.7887
2031.7	-27.3836
2034.11	-23.2884
2036.53	-19.3328
2038.94	-29.8024
2041.35	-35.0764
2043.76	-21.3915
2046.16	-22.058
2048.56	-21.4786
2050.97	-25.0886
2053.36	-19.9846
2055.76	-26.1595
2058.16	-19.6683
2060.55	-16.093
2062.94	-27.4752
2065.33	-23.907
2067.72	-23.3899
2070.1	-16.45
2072.49	-13.495
2074.87	-15.3596
2077.25	-23.2877
2079.62	-10.5586
2081.38	-12.5
2083.86	-14.5
2086.34	-13
2088.81	-14.5
2091.29	-15
2093.76	-12
2096.23	-11
2098.7	-20
2101.17	-25.5
2103.64	-10
2106.1	-4
2108.56	-12
2111.03	-9.5
2113.48	-23
2115.94	-16.5
2118.4	-18
2120.85	-16
2123.3	-15
2125.76	-23
2128.2	-23.5
2130.65	-14.5
2133.1	-29
2135.54	-14
2137.98	-18.5
2140.42	-24
2142.86	-14.5
2145.3	-15.5
2147.73	-9.5
2150.16	-15.5
2152.6	-18
2155.02	-27
2157.45	-20
2159.88	-14
2162.3	-23.5
2164.73	-22.5
2167.15	-25
2169.57	-17
2171.98	-30
2174.4	-12
2176.81	-22
2179.22	-29.5
2181.63	-32
2184.04	-23.5
2186.45	-30
2188.86	-22.5
2191.26	-24
2193.66	-27
2196.06	-23
2198.46	-32
2200.85	-18.5
2203.25	-22
2205.64	-25.5
2208.03	-33
2210.42	-21.5
2212.81	-26
2215.2	-24.5
2217.58	-23
2219.96	-27
2222.34	-51
2224.72	-35.5
2227.1	-30
2229.47	-23
2231.85	-23
2234.22	-34
2236.59	-34
2238.96	-36
2241.33	-10
2243.69	-21.5
2246.05	-36
2248.41	-33
2250.77	-40
2253.13	-33.5
2255.49	-15
2257.84	-31.5
2260.2	-35
2262.55	-50
2264.9	-29.5
2267.24	-24
2269.59	-18
2271.93	-33.5
2274.28	-24
2276.62	-30
2278.96	-34
2281.29	-40.5
2283.63	-48.5
2285.96	-27
2288.29	-30
2290.62	-47
2292.95	-18
2295.28	-24.5
2297.6	-45
2299.93	-21
2302.25	-43
2304.57	-31
2306.89	-33
2309.2	-27
2311.52	-29
2313.83	-51
2316.14	-54
2318.45	-31.5
2320.76	-29
2323.06	-35
2325.37	-25.5
2327.67	-56
2329.97	-44
2332.27	-37.5
2334.57	-28.5
2336.86	-41
2339.16	-33.5
2341.45	-57
2343.74	-39
2346.03	-33.5
2348.31	-40.5
2350.6	-25.5
2352.88	-26.5
2355.17	-35
2357.45	-50
2359.72	-33
2362	-25
2364.28	-38
2366.55	-42
2368.82	-37
2371.09	-28
2373.36	-46.5
2375.62	-31.5
2377.89	-46.5
2380.15	-46
2382.41	-46
2384.67	-36
2386.93	-36.5
2389.18	-22
2391.44	-42
2393.69	-28.5
2395.94	-26
2398.19	-41
2400.44	-29
2402.68	-31.5
2404.93	-25
2407.17	-35
2409.41	-33.5
2411.65	-35
2413.89	-35.5
2416.12	-32
2418.35	-33
2420.59	-36
2422.82	-41.5
2425.04	-29
2427.27	-28
2429.5	-24
2431.72	-26.5
2433.94	-42
2436.16	-31
2438.38	-32
2440.59	-36
2442.81	-44
2445.02	-41
2447.23	-34.5
2449.44	-31.5
2451.65	-38.5
2453.86	-22
2456.06	-33.5
2458.26	-32.5
2460.46	-28.5
2462.66	-35.5
2464.86	-48.5
2467.06	-30
2469.25	-39
2471.44	-35
2473.63	-49.5
2475.82	-30.5
2478.01	-31
2480.19	-43
2482.38	-37.5
2484.56	-34
2486.74	-30
2488.92	-26.5
2491.1	-34
2493.27	-28.25
2495.45	-32
2497.62	-43
2499.79	-35.5
2501.96	-27.5
2504.12	-28.5
2506.29	-46
2508.45	-40
2510.61	-38.5
2512.77	-31.5
2514.93	-41
2517.09	-28
2519.24	-33.5
2521.4	-33
2523.55	-25.5
2525.7	-22.5
2527.84	-42
2529.99	-34
2532.14	-44
2534.28	-42
2536.42	-39.5
2538.56	-25
2540.7	-40
2542.83	-33.5
2544.97	-24.5
2547.1	-36
2549.23	-22.5
2551.36	-31.5
2553.49	-33
2555.61	-35
2557.74	-28
2559.86	-26.5
2561.98	-20
2564.1	-25
2566.22	-39
2568.33	-36
2570.45	-39
2572.56	-21.5
2574.67	-35.5
2576.78	-27.5
2578.89	-41.5
2580.99	-27.5
2583.1	-29
2585.2	-31.5
2587.3	-47
2589.4	-36.5
2591.5	-34
2593.59	-34.5
2595.68	-21.5
2597.78	-41
2599.87	-31
2601.96	-40
2604.04	-35
2606.13	-34.5
2608.21	-25.5
2610.29	-30.5
2612.37	-27
2614.45	-25
2616.53	-28.5
2618.6	-25
2620.68	-27
2622.75	-32
2624.82	-40
2626.89	-36.5
2628.96	-55
2631.02	-36
2633.08	-26
2635.15	-36
2637.21	-35
2639.26	-48
2641.32	-25
2643.38	-27.5
2645.43	-28.5
2647.48	-34
2649.53	-20
2651.58	-54
2653.63	-24.5
2655.67	-33.5
2657.71	-30.5
2659.76	-31.5
2661.8	-39
2663.83	-28
2665.87	-32
2667.91	-27
2669.94	-26
2671.97	-28.5
2674	-30
2676.03	-38
2678.06	-32.5
2680.08	-28
2682.1	-20
2684.12	-48.5
2686.14	-45
2688.16	-32.5
2690.18	-27
2692.19	-23.5
2694.21	-32.3964
2696.22	-46.0199
2698.23	-34.9633
2700.24	-31.029
2702.24	-30.9918
2704.25	-32.9034
2706.25	-31.1881
2708.25	-38.0965
2710.25	-33.2994
2712.25	-20.9557
2714.25	-28.5539
2716.24	-25.3227
2718.23	-37.1212
2720.23	-23.9489
2722.22	-30.3022
2724.2	-38.1525
2726.19	-29.5311
2728.18	-32.6627
2730.16	-20.4856
2732.14	-27.0941
2734.12	-30.8962
2736.1	-31.3711
2738.07	-25.2297
2740.05	-30.9612
2742.02	-21.6995
2743.99	-29.0463
2745.96	-23.7347
2747.93	-20.4404
2749.9	-16.5582
2751.86	-27.1851
2753.83	-16.9432
2755.79	-19.2005
2757.75	-24.5758
2759.71	-35.9381
2761.66	-16.1998
2763.63	-0.5
2765.69	-8
2767.75	-21.5
2769.81	-24
2771.87	-12
2773.92	-10
2775.97	-3
2778.03	-15
2780.08	-19
2782.12	-30
2784.17	-6
2786.22	-13
2788.26	-8.5
2790.31	-19.5
2792.35	-28
2794.39	-20
2796.43	-22
2798.46	-10.5
2800.5	-15
2802.54	-21.5
2804.57	-4
2806.6	-27
2808.63	-30
2810.66	-25
2812.69	-17.5
2814.71	-20.5
2816.74	-28
2818.76	-16.5
2820.78	-13.5
2822.8	-7.5
2824.82	-18
2826.84	-21
2828.86	-9.5
2830.87	-11.5
2832.88	-9
2834.9	-21
2836.91	-26
2838.91	-16
2840.92	-30
2842.93	-5
2844.93	-14.5
2846.93	-3
2848.94	-5
2850.94	1
2852.94	-1
2854.93	3
2856.93	-4
2858.92	-16
2860.92	-26
2862.91	-23
2864.9	-13
2866.89	-11
2868.87	-23.5
2870.86	-27
2872.84	-15
2874.83	-8.5
2876.81	-8
2878.79	-11
2880.77	-13.5
2882.75	-21
2884.72	-31
2886.7	-25.5
2888.67	-11.5
2890.64	-15
2892.61	-14.5
2894.58	-32
2896.55	-22
2898.51	-15.5
2900.48	-29
2902.44	-14.5
2904.4	-6
2906.36	-36
2908.32	-19.5
2910.28	-16
2912.23	-30.5
2914.19	-23
2916.14	-13
2918.09	-29
2920.04	-21
2921.99	-6
2923.94	-23.5
2925.88	-21.5
2927.83	-32
2929.77	-17.5
2931.71	-18.5
2933.65	-8
2935.59	-19
2937.53	-38
2939.46	-27.5
2941.4	-18
2943.33	-23.5
2945.26	-23
2947.19	-12.5
2949.12	-41
2951.05	-40
2952.98	-20.5
2954.9	-32.5
2956.82	-26
2958.74	-40.5
2960.66	-53
2962.58	-47
2964.5	-23
2966.42	-33
2968.33	-35.5
2970.24	-28.5
2972.15	-52
2974.06	-38
2975.97	-27.5
2977.88	-23.5
2979.79	-38.5
2981.69	-46
2983.59	-31
2985.49	-40.5
2987.39	-57.5
2989.29	-38
2991.19	-25.5
2993.09	-36
2994.98	-44
2996.87	-29.5
2998.77	-31.5
3000.66	-42.5
3002.54	-26
3004.43	-60
3006.32	-37.5
3008.2	-34.5
3010.08	-21
3011.97	-43.5
3013.85	-34
3015.72	-33
3017.6	-31.5
3019.48	-23
3021.35	-25.5
3023.23	-17
3025.1	-45
3026.97	-41
3028.84	-45
3030.7	-22
3032.57	-38
3034.43	-40.5
3036.3	-46.5
3038.16	-33
3040.02	-45
3041.88	-23.5
3043.73	-30.5
3045.59	-36
3047.44	-33
3049.3	-49
3051.15	-30.5
3053	-27.5
3054.85	-39
3056.7	-35.5
3058.54	-36
3060.39	-38.5
3062.23	-35.5
3064.07	-30
3065.91	-40
3067.75	-41.5
3069.59	-46.5
3071.42	-24.5
3073.26	-33.5
3075.09	-42.5
3076.92	-35.5
3078.75	-37
3080.58	-41
3082.41	-37
3084.24	-33
3086.06	-44
3087.88	-29
3089.71	-40
3091.53	-38.5
3093.34	-38.5
3095.16	-26.5
3096.98	-42
3098.79	-30.5
3100.61	-50
3102.42	-21
3104.23	-31.5
3106.04	-35.5
3107.85	-27
3109.65	-42
3111.46	-35.5
3113.26	-27.5
3115.06	-31.5
3116.86	-36.5
3118.66	-37.5
3120.46	-39.5
3122.26	-32
3124.05	-20
3125.84	-34
3127.64	-36
3129.43	-26.5
3131.22	-25
3133	-22.5
3134.79	-24.5
3136.58	-36.5
3138.36	-37.5
3140.14	-38.5
3141.92	-38.5
3143.7	-42.5
3145.48	-31
3147.26	-29
3149.03	-38.5
3150.8	-35
3152.58	-37
3154.35	-22
3156.12	-18.5
3157.88	-33.5
3159.65	-33
3161.42	-40
3163.18	-33.5
3164.94	-28.5
3166.7	-35
3168.46	-42.5
3170.22	-41
3171.98	-32.5
3173.73	-27.5
3175.49	-45.5
3177.24	-38
3178.99	-50
3180.74	-32.5
3182.49	-33
3184.23	-30
3185.98	-32.5
3187.72	-26
3189.47	-35.5
3191.21	-38
3192.95	-20
3194.69	-34
3196.42	-27.5
3198.16	-34
3199.89	-43