File: raman_enhancement_factor/Renata_Raman_12_12_2025/Oil_50Xlens_785_1200grating_25%_acc3_acq3s_AE50000_1.txt
100.582	425.5
104.437	398
108.287	373
112.136	356
115.981	347
119.823	341.5
123.663	340.5
127.499	322.5
131.333	324.5
135.163	317.5
138.992	303
142.816	260
146.637	261
150.457	262
154.273	248.5
158.086	230.5
161.896	203.5
165.703	199
169.507	165
173.309	175
177.107	182
180.902	175
184.695	159
188.485	142
192.272	153
196.055	156.5
199.837	160.5
203.615	162.5
207.39	139
211.162	127
214.932	144
218.697	136
222.462	131
226.222	124
229.98	121
233.734	137.5
237.486	141
241.235	141
244.981	160
248.725	189
252.465	168
256.203	133
259.937	150.5
263.669	132.5
267.398	107
271.123	121
274.846	95
278.566	91.5
282.283	97.5
285.998	104
289.71	91
293.418	80.5
297.123	84.5
300.826	100
304.526	94.5
308.223	74.5
311.917	79
315.609	84
319.297	80
322.982	74
326.665	76
330.345	73
334.022	40
337.696	78
341.367	67.5
345.036	62
348.701	60
352.363	50
356.023	55
359.68	71
363.334	68
366.986	65.5
370.633	54
374.279	61
377.921	77
381.562	55
385.198	70
388.832	51.5
392.463	34
396.092	50.5
399.717	57.5
403.34	56
406.96	41
410.576	54
414.191	42.5
417.802	63
421.41	36
425.016	52
428.619	47
432.218	45.5
435.815	31
439.41	38
443.001	51.5
446.59	32.5
450.175	37
453.758	33
457.339	24
460.916	33.5
464.49	27
468.062	48
471.631	36.5
475.196	20
478.76	33
482.32	30
485.877	19.5
489.432	39.5
492.984	31
496.533	23.5
500.079	16
503.622	21
507.163	30
510.701	31.5
514.236	31
517.768	15.5
521.297	25
524.823	25
528.348	34.5
531.868	14
535.386	23
538.902	28.5
542.414	19.5
545.924	25
549.431	26.5
552.935	20
556.436	2
559.935	4
563.431	14.5
566.924	33.5
570.414	13.5
573.901	21.5
577.385	7
580.867	25.5
584.347	12
587.822	26.5
591.296	22
594.767	17
598.234	11
601.699	27
605.161	18.5
608.621	10
612.078	13
615.532	14.5
618.983	18
622.431	8.5
625.877	20
629.32	13
632.76	9.5
636.197	-4
639.632	10
643.064	12
646.493	15.5
649.919	17.5
653.342	-2
656.764	-12
660.181	11.5
663.596	10
667.009	16
670.419	5
673.826	4.5
677.23	13
680.631	6
684.03	8
687.426	8
690.819	3
694.21	20
697.597	-2
700.982	10.5
704.364	23.5
707.744	9.5
711.12	4.5
714.495	8
717.865	30
721.234	1
724.6	12
727.962	18
731.323	12.5
734.681	6.5
738.036	21.5
741.387	17.5
744.736	15
748.083	7.5
751.427	-4
754.768	-9
758.107	14
761.443	13
764.776	6
768.106	12
771.434	-5
774.758	7.5
778.081	6
781.399	11.5
784.716	-10
788.03	4
791.341	7.5
794.65	6
797.956	-0.5
801.259	17
804.559	18.5
807.857	2.5
811.152	8
814.444	25
817.733	22
821.02	19
824.305	10
827.586	23
830.865	20.5
834.141	44.5
837.414	43.5
840.685	29.5
843.952	19
847.218	31
850.48	22.5
853.74	35.5
856.997	28.5
860.252	22.5
863.504	27
866.753	28
869.999	28.5
873.243	36.5
876.484	35
879.722	25
882.958	11.5
886.191	20
889.421	36.5
892.649	20
895.874	19.5
899.096	12
902.315	10
905.533	31
908.747	35.5
911.958	24.5
915.167	25.5
918.374	12
921.577	28
924.778	20.5
927.977	24
931.173	24
934.365	8
937.556	15
940.743	19.5
943.928	17
947.11	17
950.29	14.5
953.467	10
956.641	20
959.813	14
962.982	28
966.149	14
969.312	20.5
972.473	10
975.631	12.5
978.787	19.5
981.94	12
985.091	8.5
988.239	-6.5
991.384	2
994.527	12.5
997.666	6
1000.8	14
1003.94	15
1007.07	9.5
1010.2	6
1013.33	16.5
1016.45	12
1019.57	13.5
1022.69	8
1025.81	-2
1028.92	13
1032.03	4
1035.14	6
1038.25	-0.5
1041.35	5
1044.45	15
1047.55	9.5
1050.64	19.5
1053.74	14
1056.83	7
1059.91	12
1063	25
1066.08	14.5
1069.16	29
1072.24	38
1075.31	20
1078.38	21.5
1081.45	23.5
1084.52	29.5
1087.58	28
1090.64	26.5
1093.7	17
1096.76	15
1099.81	11.5
1102.86	2
1105.91	22.5
1108.96	1
1112	7
1115.04	6
1118.08	7.5
1121.11	16.5
1124.15	2.5
1127.18	5
1130.2	-7
1133.23	6
1136.25	2.5
1139.27	4
1142.29	1
1145.3	0.5
1148.32	-15
1151.33	-0.868633
1154.33	-3.39088
1157.34	1.38948
1160.34	14.454
1163.34	-1.33226
1166.33	5.69323
1169.33	-1.58488
1172.32	3.85438
1175.31	-2.34551
1178.3	1.40329
1181.28	-2.86766
1184.26	-1.05749
1187.24	2.97785
1190.22	1.51386
1193.19	-0.00432884
1196.16	4.42278
1199.13	0.815162
1202.09	-1.02551
1205.06	-2.21447
1208.02	6.76577
1210.98	-3.9285
1213.93	-6.16573
1216.89	9.71019
1219.84	6.64327
1222.78	9.91091
1225.73	12.6958
1228.67	18.7019
1231.61	-0.897953
1234.55	19.9763
1237.49	24.4231
1240.42	18.8788
1243.35	20.8214
1246.28	24.047
1249.2	32.6608
1252.12	38.723
1254.74	43
1257.76	41.5
1260.79	41
1263.81	60.5
1266.82	45
1269.84	38
1272.85	39
1275.86	46
1278.87	46
1281.88	31
1284.88	32
1287.89	36
1290.89	29.5
1293.88	37
1296.88	41
1299.87	59
1302.86	51
1305.85	53
1308.84	41.5
1311.83	36.5
1314.81	27.5
1317.79	40
1320.77	32
1323.74	30
1326.72	20.5
1329.69	19
1332.66	1
1335.62	15
1338.59	11
1341.55	16
1344.51	8
1347.47	14
1350.43	30
1353.38	24
1356.33	0
1359.28	9.5
1362.23	-0.5
1365.17	17.5
1368.12	0
1371.06	17
1373.99	10
1376.93	9
1379.86	4.5
1382.8	13
1385.73	-18
1388.65	19
1391.58	13
1394.5	6.5
1397.42	20
1400.34	2
1403.26	5
1406.17	7
1409.08	11
1411.99	8
1414.9	14
1417.81	19
1420.71	10
1423.61	21.5
1426.51	20.5
1429.41	30
1432.3	42.5
1435.2	75
1438.09	51
1440.97	56
1443.86	39.5
1446.74	28.5
1449.63	42.5
1452.5	24
1455.38	30
1458.26	13.5
1461.13	29
1464	17
1466.87	1
1469.73	8
1472.6	9
1475.46	-3
1478.32	-18.5
1481.18	2
1484.03	-8
1486.89	-1
1489.74	-15.5
1492.59	-8
1495.43	-0.5
1498.28	-5.5
1501.12	-25
1503.96	-7
1506.8	-6
1509.64	-27
1512.47	-13.5
1515.3	-14
1518.13	-15
1520.96	-7
1523.78	-9.5
1526.6	-19
1529.43	-9.5
1532.24	-37
1535.06	-34
1537.88	-14
1540.69	-14
1543.5	-10
1546.3	-11
1549.11	-9
1551.91	-5
1554.72	-15
1557.51	-21
1560.31	-19
1563.11	-21
1565.9	-25
1568.69	-18
1571.48	-15
1574.26	-14.5
1577.05	-22
1579.83	-22
1582.61	-15
1585.39	-27
1588.16	-27
1590.94	-3
1593.71	-17
1596.48	-27
1599.24	-34
1602.01	-16.5
1604.77	-39
1607.53	-26
1610.29	-3
1613.05	-38
1615.8	-7
1618.55	-24
1621.3	-21.5
1624.05	-24
1626.79	-17
1629.54	-6
1632.28	-9.5
1635.02	-22
1637.75	-18.5
1640.49	-7
1643.22	-17
1645.95	6
1648.68	-1
1651.41	12
1654.13	26
1656.85	34
1659.57	18
1662.29	10
1665.01	3.5
1667.72	-11.5
1670.43	-3.5
1673.14	-39
1675.85	-18.5
1678.55	-28
1681.25	-20.5
1683.95	-25
1686.65	-22
1689.35	-40
1692.04	-14
1694.74	-22
1697.43	-24
1700.11	-25
1702.8	-23
1705.48	-22
1708.16	-22.5
1710.84	-30.5
1713.52	-30
1716.2	-23
1718.87	-31
1721.54	-20
1724.21	-30.5
1726.88	-31.5
1729.54	-25.5
1732.2	-20
1734.86	-19
1737.52	-4
1740.18	-15
1742.83	-35
1745.48	-23
1748.13	-29
1750.78	-40
1753.43	-11.5
1756.07	-21
1758.71	-17.5
1761.35	-10.5
1763.99	-26
1766.62	-16
1769.25	-20.5
1771.89	-24
1774.51	-24
1777.14	-37
1779.76	-19
1782.39	-37.5
1785.01	-22
1787.63	-23
1790.24	-31
1792.86	-31
1795.47	-27
1798.08	-38
1800.68	-25
1803.29	-29.5
1805.89	-23.5
1808.49	-12
1811.09	-23
1813.69	-29.5
1816.29	-28.5
1818.88	-15.5
1821.47	-34
1824.06	-15.5
1826.65	-22.5
1829.23	-23
1831.81	-19.5
1834.39	-11.5
1836.97	-32
1839.55	-33.5
1842.12	-31.5
1844.69	-33.5
1847.26	-23
1849.83	-30
1852.4	-13
1854.96	-40
1857.52	-28
1860.08	-26
1862.64	-23
1865.19	-20
1867.75	-26
1870.3	-30
1872.85	-32
1875.4	-24
1877.94	-24
1880.48	-33
1883.02	-24
1885.56	-36
1888.1	-23.5
1890.63	-37.5
1893.17	-13
1895.7	-33
1898.23	-21.5
1900.75	-33.5
1903.28	-25
1905.8	-27
1908.32	-27
1910.84	-34
1913.35	-22
1915.87	-35.5
1918.38	-30.5
1920.89	-19.5
1923.4	-21
1925.9	-33.5
1928.41	-29.5
1930.91	-29
1933.41	-6
1935.9	-18
1938.4	-19.5
1940.89	-25
1943.38	-31
1945.87	-40.5
1948.36	-15.5
1950.84	-40.5
1953.33	-35
1955.81	-22.5
1958.29	-26
1960.76	-28
1963.24	-26
1965.71	-23
1968.18	-49
1970.65	-30
1973.12	-34.5
1975.58	-19
1978.04	-25
1980.5	-39
1982.96	-21
1985.42	-19.5
1987.87	-25
1990.32	-30
1992.78	-19
1995.22	-36
1997.67	-46.8357
2000.11	-28.4622
2002.56	-29.2092
2004.99	-22.2337
2007.43	-40.4629
2009.87	-27.944
2012.3	-27.5766
2014.73	-26.1493
2017.16	-27.8455
2019.59	-23.5468
2022.02	-41.0903
2024.44	-25.2211
2026.86	-24.8624
2029.28	-33.1843
2031.7	-30.6984
2034.11	-22.7436
2036.53	-24.9929
2038.94	-30.1333
2041.35	-24.5701
2043.76	-23.4125
2046.16	-29.1361
2048.56	-31.9476
2050.97	-25.9313
2053.36	-22.5995
2055.76	-23.1021
2058.16	-20.2223
2060.55	-17.8971
2062.94	-19.8544
2065.33	-27.2677
2067.72	-14.5987
2070.1	-13.8851
2072.49	-14.9813
2074.87	-25.3233
2077.25	-24.3492
2079.62	-14.546
2081.38	-17
2083.86	-17.5
2086.34	-9
2088.81	-12.5
2091.29	-8.5
2093.76	-16
2096.23	-10.5
2098.7	-10
2101.17	-5.5
2103.64	-11.5
2106.1	-18
2108.56	-15
2111.03	-18.5
2113.48	-20.5
2115.94	-17.5
2118.4	-5
2120.85	-14
2123.3	-11
2125.76	-29
2128.2	-20.5
2130.65	-21
2133.1	-23
2135.54	-12
2137.98	-26
2140.42	-17
2142.86	-43
2145.3	-3.5
2147.73	-6
2150.16	-15.5
2152.6	-21
2155.02	-30
2157.45	-25
2159.88	-20
2162.3	-8
2164.73	-23.5
2167.15	-21
2169.57	-38
2171.98	-11
2174.4	-42
2176.81	-17
2179.22	-22
2181.63	-19
2184.04	-24.5
2186.45	-25
2188.86	-36.5
2191.26	-18
2193.66	-33
2196.06	-47
2198.46	-32.5
2200.85	-32
2203.25	-23
2205.64	-46
2208.03	-34
2210.42	-20
2212.81	-16
2215.2	-26
2217.58	-31
2219.96	-36.5
2222.34	-29
2224.72	-19
2227.1	-25
2229.47	-21
2231.85	-25
2234.22	-35
2236.59	-57
2238.96	-30.5
2241.33	-33.5
2243.69	-29
2246.05	-26.5
2248.41	-48
2250.77	-31.5
2253.13	-28.5
2255.49	-31.5
2257.84	-24.5
2260.2	-33
2262.55	-36
2264.9	-30
2267.24	-50
2269.59	-36
2271.93	-45.5
2274.28	-46
2276.62	-42
2278.96	-33
2281.29	-38.5
2283.63	-18.5
2285.96	-33.5
2288.29	-39
2290.62	-46
2292.95	-34
2295.28	-34.5
2297.6	-26
2299.93	-51
2302.25	-50
2304.57	-32.5
2306.89	-43.5
2309.2	-29
2311.52	-21.5
2313.83	-31
2316.14	-41
2318.45	-32
2320.76	-42.5
2323.06	-22.5
2325.37	-47
2327.67	-43
2329.97	-28.5
2332.27	-40
2334.57	-26
2336.86	-31.5
2339.16	-43
2341.45	-34
2343.74	-29.5
2346.03	-33
2348.31	-33.5
2350.6	-39
2352.88	-48
2355.17	-43
2357.45	-33
2359.72	-20
2362	-31
2364.28	-33
2366.55	-38
2368.82	-37.5
2371.09	-37.5
2373.36	-32
2375.62	-47
2377.89	-31
2380.15	-40
2382.41	-35.5
2384.67	-29.5
2386.93	-38
2389.18	-35
2391.44	-37
2393.69	-34.5
2395.94	-35
2398.19	-26.5
2400.44	-34.5
2402.68	-32
2404.93	-28.5
2407.17	-29
2409.41	-20
2411.65	-23
2413.89	-33.5
2416.12	-41
2418.35	-37
2420.59	-39
2422.82	-30
2425.04	-43
2427.27	-31
2429.5	-29.5
2431.72	-30
2433.94	-38
2436.16	-44
2438.38	-31
2440.59	-35.5
2442.81	-36.5
2445.02	-30.5
2447.23	-32.5
2449.44	-35.5
2451.65	-34
2453.86	-28
2456.06	-33
2458.26	-34
2460.46	-21
2462.66	-38
2464.86	-28.5
2467.06	-40
2469.25	-53
2471.44	-27.5
2473.63	-32.5
2475.82	-26.5
2478.01	-38
2480.19	-39
2482.38	-33
2484.56	-32.5
2486.74	-36
2488.92	-39.5
2491.1	-32.5
2493.27	-33.5
2495.45	-41.5
2497.62	-36.5
2499.79	-37
2501.96	-33.5
2504.12	-36
2506.29	-42
2508.45	-38
2510.61	-30.5
2512.77	-39.5
2514.93	-33
2517.09	-44
2519.24	-59
2521.4	-40
2523.55	-22.5
2525.7	-35.5
2527.84	-41
2529.99	-35
2532.14	-35
2534.28	-27.5
2536.42	-26.5
2538.56	-27.5
2540.7	-57
2542.83	-35
2544.97	-50
2547.1	-29
2549.23	-26.5
2551.36	-30
2553.49	-31
2555.61	-48
2557.74	-31.5
2559.86	-40
2561.98	-31
2564.1	-39.5
2566.22	-43
2568.33	-45
2570.45	-32
2572.56	-20
2574.67	-18.5
2576.78	-47
2578.89	-41
2580.99	-39
2583.1	-32.5
2585.2	-20.5
2587.3	-29
2589.4	-34
2591.5	-39
2593.59	-24.5
2595.68	-38
2597.78	-22.5
2599.87	-61
2601.96	-24
2604.04	-36.5
2606.13	-36
2608.21	-27.5
2610.29	-37.5
2612.37	-32
2614.45	-35
2616.53	-30
2618.6	-16
2620.68	-24
2622.75	-33.5
2624.82	-33.5
2626.89	-27
2628.96	-28.5
2631.02	-30.5
2633.08	-24
2635.15	-44
2637.21	-47
2639.26	-24
2641.32	-31
2643.38	-29.5
2645.43	-30.5
2647.48	-43.5
2649.53	-34
2651.58	-39
2653.63	-16.5
2655.67	-33
2657.71	-31
2659.76	-43
2661.8	-27.5
2663.83	-30
2665.87	-20.5
2667.91	-23.5
2669.94	-34
2671.97	-25
2674	-38
2676.03	-32.5
2678.06	-28
2680.08	-13.5
2682.1	-26
2684.12	-25
2686.14	-25
2688.16	-14
2690.18	-28
2692.19	-26.5
2694.21	-43.2525
2696.22	-36.5734
2698.23	-24.4545
2700.24	-30.8467
2702.24	-39.8439
2704.25	-41.8079
2706.25	-37.9221
2708.25	-35.4811
2710.25	-26.268
2712.25	-24.908
2714.25	-27.1977
2716.24	-27.032
2718.23	-35.5685
2720.23	-29.7193
2722.22	-29.3997
2724.2	-27.7539
2726.19	-26.1981
2728.18	-36.4528
2730.16	-28.4401
2732.14	-32.6221
2734.12	-28.6065
2736.1	-18.953
2738.07	-28.0972
2740.05	-33.8569
2742.02	-30.533
2743.99	-23.4035
2745.96	-25.5369
2747.93	-27.5986
2749.9	-22.7228
2751.86	-22.8458
2753.83	-21.8652
2755.79	-16.2618
2757.75	-21.4123
2759.71	-18.9858
2761.66	-27.4239
2763.63	-11
2765.69	-10.5
2767.75	-19
2769.81	-21
2771.87	-25
2773.92	-29
2775.97	-11
2778.03	-19.5
2780.08	-19
2782.12	-29
2784.17	-27
2786.22	-2
2788.26	-16.5
2790.31	-20.5
2792.35	-19.5
2794.39	-25
2796.43	-11
2798.46	-17.5
2800.5	-16
2802.54	-25
2804.57	-16
2806.6	-16
2808.63	-31
2810.66	-31
2812.69	-25
2814.71	-22
2816.74	-21.5
2818.76	-19
2820.78	-10.5
2822.8	-21.5
2824.82	-25.5
2826.84	-15.5
2828.86	-23.5
2830.87	-6.5
2832.88	-10
2834.9	-16.5
2836.91	-13.5
2838.91	-30
2840.92	-13
2842.93	-21
2844.93	-25
2846.93	-26
2848.94	-6.5
2850.94	-24.5
2852.94	-11
2854.93	-21
2856.93	-8.5
2858.92	-17
2860.92	-19
2862.91	-19
2864.9	-18
2866.89	-15
2868.87	-29
2870.86	-44.5
2872.84	-35
2874.83	-31
2876.81	-23
2878.79	-16.5
2880.77	-29.5
2882.75	-22
2884.72	-30
2886.7	-27
2888.67	-38
2890.64	-21.5
2892.61	-22.5
2894.58	-28
2896.55	-22
2898.51	-40
2900.48	-22
2902.44	-32
2904.4	-26
2906.36	-28
2908.32	-22
2910.28	-52
2912.23	-16
2914.19	-24
2916.14	-30.5
2918.09	-13.5
2920.04	-21
2921.99	-17.5
2923.94	-19
2925.88	-29.5
2927.83	-37.5
2929.77	-13.5
2931.71	-48
2933.65	-21.5
2935.59	-32
2937.53	-32.5
2939.46	-19
2941.4	-30
2943.33	-18
2945.26	-30
2947.19	-24.5
2949.12	-34.5
2951.05	-18
2952.98	-49
2954.9	-41
2956.82	-29
2958.74	-42
2960.66	-38
2962.58	-33
2964.5	-38
2966.42	-52
2968.33	-33
2970.24	-33.5
2972.15	-34.5
2974.06	-49
2975.97	-29
2977.88	-40
2979.79	-50.5
2981.69	-43
2983.59	-35
2985.49	-57
2987.39	-38
2989.29	-31.5
2991.19	-37.5
2993.09	-27.5
2994.98	-40
2996.87	-33
2998.77	-22
3000.66	-32
3002.54	-41
3004.43	-35
3006.32	-27
3008.2	-33
3010.08	-29
3011.97	-33.5
3013.85	-38
3015.72	-29
3017.6	-30
3019.48	-36
3021.35	-38.5
3023.23	-35.5
3025.1	-29
3026.97	-35
3028.84	-45
3030.7	-35
3032.57	-23
3034.43	-43.5
3036.3	-30.5
3038.16	-36
3040.02	-29
3041.88	-40.5
3043.73	-36.5
3045.59	-44.5
3047.44	-40
3049.3	-36
3051.15	-26
3053	-36
3054.85	-32.5
3056.7	-35.5
3058.54	-44
3060.39	-37
3062.23	-46
3064.07	-35.5
3065.91	-27.5
3067.75	-40
3069.59	-48
3071.42	-50
3073.26	-42
3075.09	-48
3076.92	-36.5
3078.75	-32.5
3080.58	-30
3082.41	-41
3084.24	-27
3086.06	-34.5
3087.88	-38
3089.71	-27
3091.53	-37
3093.34	-39
3095.16	-45
3096.98	-37.5
3098.79	-44
3100.61	-38
3102.42	-35.5
3104.23	-30
3106.04	-27.5
3107.85	-36
3109.65	-46
3111.46	-41.5
3113.26	-41
3115.06	-32
3116.86	-36.5
3118.66	-40
3120.46	-41
3122.26	-33
3124.05	-26
3125.84	-28
3127.64	-34
3129.43	-38.5
3131.22	-39
3133	-36
3134.79	-25.5
3136.58	-39.5
3138.36	-42
3140.14	-35.5
3141.92	-45.5
3143.7	-36
3145.48	-38
3147.26	-32.5
3149.03	-45.5
3150.8	-38
3152.58	-34
3154.35	-35
3156.12	-34
3157.88	-41.5
3159.65	-35.5
3161.42	-27.5
3163.18	-36
3164.94	-35
3166.7	-26
3168.46	-33.5
3170.22	-35
3171.98	-41
3173.73	-30
3175.49	-57
3177.24	-32.5
3178.99	-30
3180.74	-38
3182.49	-31.5
3184.23	-48
3185.98	-28
3187.72	-37.5
3189.47	-27.5
3191.21	-30
3192.95	-47
3194.69	-41
3196.42	-35
3198.16	-32.5
3199.89	-40