File: raman_enhancement_factor/Renata_Raman_12_12_2025/Oil_BHT_0_008Au_sub_Aged_50Xlens_785_1200grating_25%_acc3_acq3s_AE50000.txt
100.582	327
104.437	350
108.287	294.5
112.136	284
115.981	276
119.823	272.5
123.663	272
127.499	265.5
131.333	253
135.163	239
138.992	226.5
142.816	225
146.637	196
150.457	187
154.273	194
158.086	176
161.896	165.5
165.703	166.5
169.507	151.5
173.309	138
177.107	114
180.902	120
184.695	120.5
188.485	121
192.272	94
196.055	107
199.837	118
203.615	113
207.39	114.5
211.162	105.5
214.932	122.5
218.697	96
222.462	98
226.222	98
229.98	97.5
233.734	83
237.486	92
241.235	110.5
244.981	128.5
248.725	194.5
252.465	182
256.203	114
259.937	127
263.669	90
267.398	105
271.123	95.5
274.846	93.5
278.566	68
282.283	68.5
285.998	68
289.71	70
293.418	71.5
297.123	70.5
300.826	74
304.526	56
308.223	53
311.917	64
315.609	62
319.297	51.5
322.982	40
326.665	54
330.345	53
334.022	64.5
337.696	46
341.367	37
345.036	45
348.701	28
352.363	59
356.023	44
359.68	42.5
363.334	11
366.986	37
370.633	41
374.279	58
377.921	47
381.562	35.5
385.198	25
388.832	23
392.463	24
396.092	32.5
399.717	39
403.34	37
406.96	14.5
410.576	26
414.191	32
417.802	36
421.41	29
425.016	34
428.619	27
432.218	33
435.815	22.5
439.41	21.5
443.001	23
446.59	4.5
450.175	5.5
453.758	26
457.339	14.5
460.916	30
464.49	14
468.062	22.5
471.631	22
475.196	8.5
478.76	20.5
482.32	17.5
485.877	5
489.432	-2
492.984	14
496.533	10
500.079	7
503.622	18
507.163	7.5
510.701	14.5
514.236	8
517.768	15.5
521.297	11.5
524.823	16.5
528.348	12.5
531.868	6
535.386	8
538.902	14.5
542.414	6.5
545.924	-4
549.431	3
552.935	12
556.436	6
559.935	3
563.431	10
566.924	9
570.414	4.5
573.901	2
577.385	9
580.867	-2.5
584.347	-12
587.822	5
591.296	6
594.767	-8
598.234	-2.5
601.699	8
605.161	4
608.621	3.5
612.078	-5
615.532	-0.5
618.983	9.5
622.431	-10.5
625.877	9
629.32	0
632.76	-10
636.197	-0.5
639.632	2.5
643.064	9
646.493	-1.5
649.919	-0.5
653.342	0
656.764	1
660.181	-11.5
663.596	-15
667.009	-16
670.419	-4
673.826	-6.5
677.23	-16
680.631	-11.5
684.03	-3
687.426	-2.5
690.819	-4.5
694.21	-5.5
697.597	-5
700.982	8.5
704.364	-12
707.744	-6
711.12	-0.5
714.495	4.5
717.865	15.5
721.234	-1.5
724.6	-3
727.962	2
731.323	8
734.681	2.5
738.036	7
741.387	-14
744.736	-0.5
748.083	1
751.427	-0.5
754.768	12
758.107	2
761.443	-7
764.776	-3
768.106	13
771.434	-6
774.758	5
778.081	-2.5
781.399	-7
784.716	-15
788.03	5.5
791.341	-2.5
794.65	8
797.956	-10
801.259	-1
804.559	8
807.857	-6.5
811.152	9
814.444	-9
817.733	-5
821.02	0
824.305	13.5
827.586	18.5
830.865	23
834.141	9.5
837.414	12.5
840.685	29
843.952	27.5
847.218	32
850.48	17.5
853.74	15.5
856.997	-4
860.252	14.5
863.504	19.5
866.753	24
869.999	20.5
873.243	5
876.484	28.5
879.722	16.5
882.958	30.5
886.191	22
889.421	6.5
892.649	7
895.874	14.5
899.096	24.5
902.315	19
905.533	-7.5
908.747	10
911.958	11
915.167	29
918.374	10
921.577	16
924.778	17.5
927.977	3.5
931.173	12
934.365	27
937.556	18
940.743	7
943.928	5
947.11	10
950.29	7
953.467	5
956.641	3
959.813	2
962.982	-23
966.149	12.5
969.312	13.5
972.473	16
975.631	12
978.787	11
981.94	-9
985.091	-1
988.239	-22
991.384	-12
994.527	0
997.666	-18
1000.8	-12.5
1003.94	-4.5
1007.07	9.5
1010.2	2.5
1013.33	-9
1016.45	3
1019.57	-2
1022.69	9.5
1025.81	-2
1028.92	-13.5
1032.03	-4
1035.14	-9.5
1038.25	-2
1041.35	-4.5
1044.45	5
1047.55	2
1050.64	-10.5
1053.74	-3
1056.83	6.5
1059.91	16
1063	24
1066.08	1
1069.16	-6.5
1072.24	7.5
1075.31	10.5
1078.38	23
1081.45	13
1084.52	9.5
1087.58	3.5
1090.64	5
1093.7	-6
1096.76	10.5
1099.81	3.5
1102.86	6
1105.91	-7
1108.96	-16.5
1112	10.5
1115.04	-1
1118.08	-5
1121.11	-10.5
1124.15	-4
1127.18	-11.5
1130.2	-10
1133.23	-11
1136.25	-17.5
1139.27	-20
1142.29	-11.5
1145.3	-4
1148.32	-30
1151.33	-16.2681
1154.33	-23.6853
1157.34	-19.3822
1160.34	-12.1413
1163.34	-5.22831
1166.33	-16.6509
1169.33	-16.5388
1172.32	-18.6652
1175.31	2.6983
1178.3	-4.85066
1181.28	-4.61323
1184.26	-2.00556
1187.24	-8.29286
1190.22	-7.18536
1193.19	-11.722
1196.16	-7.73456
1199.13	-11.6775
1202.09	0.71332
1205.06	-9.64268
1208.02	-16.2901
1210.98	-16.2968
1213.93	-3.37619
1216.89	-8.40255
1219.84	-8.4338
1222.78	-1.45668
1225.73	-4.52044
1228.67	-0.878026
1231.61	3.13351
1234.55	-0.175615
1237.49	1.40675
1240.42	5.17894
1243.35	5.69102
1246.28	17.2113
1249.2	10.6332
1252.12	15.9135
1254.74	22
1257.76	25
1260.79	33.5
1263.81	40.5
1266.82	33.5
1269.84	34.5
1272.85	34
1275.86	9
1278.87	20.5
1281.88	15
1284.88	22
1287.89	7
1290.89	19
1293.88	37
1296.88	39
1299.87	30.5
1302.86	37.5
1305.85	25
1308.84	20.5
1311.83	13
1314.81	16.5
1317.79	-6
1320.77	11
1323.74	8
1326.72	3
1329.69	-1.5
1332.66	-2
1335.62	5.5
1338.59	2
1341.55	-9
1344.51	6.5
1347.47	-1.5
1350.43	-12.5
1353.38	2
1356.33	-14
1359.28	-23
1362.23	0
1365.17	-12.5
1368.12	-20
1371.06	-6.5
1373.99	-3
1376.93	0
1379.86	-1.5
1382.8	-16
1385.73	-15
1388.65	-9
1391.58	-24
1394.5	-5
1397.42	-6.5
1400.34	-23
1403.26	-13.5
1406.17	-17
1409.08	-4.5
1411.99	-9
1414.9	-16.5
1417.81	0
1420.71	-4.5
1423.61	-10
1426.51	-3
1429.41	18
1432.3	21
1435.2	26.5
1438.09	49.5
1440.97	33
1443.86	25
1446.74	14
1449.63	19
1452.5	16
1455.38	12
1458.26	16
1461.13	6
1464	5
1466.87	5
1469.73	-11
1472.6	-13
1475.46	-16.5
1478.32	4
1481.18	-23.5
1484.03	-25
1486.89	-28
1489.74	-10
1492.59	-19
1495.43	-17.5
1498.28	-27
1501.12	-18
1503.96	-30
1506.8	-26
1509.64	-31
1512.47	-13.5
1515.3	-32.5
1518.13	-31
1520.96	-21.5
1523.78	-15
1526.6	-23
1529.43	-31.5
1532.24	-25.5
1535.06	-26
1537.88	-24
1540.69	-41
1543.5	-17
1546.3	-22.5
1549.11	-30
1551.91	-31
1554.72	-20.5
1557.51	-18
1560.31	-32.5
1563.11	-29
1565.9	-28.5
1568.69	-35
1571.48	-27
1574.26	-21
1577.05	-33.5
1579.83	-29
1582.61	-26.5
1585.39	-26
1588.16	-38
1590.94	-27.5
1593.71	-25
1596.48	-20.5
1599.24	-27.5
1602.01	-12
1604.77	-16
1607.53	-35.5
1610.29	-42.5
1613.05	-31
1615.8	-26.5
1618.55	-13
1621.3	-22.5
1624.05	-39
1626.79	-23.5
1629.54	-32.5
1632.28	-25
1635.02	-14.5
1637.75	-13
1640.49	-36
1643.22	-5.5
1645.95	-3
1648.68	10
1651.41	11
1654.13	20.5
1656.85	27
1659.57	5.5
1662.29	15
1665.01	-3.5
1667.72	-15
1670.43	-35
1673.14	-17.5
1675.85	-31
1678.55	-22
1681.25	-31
1683.95	-23
1686.65	-43
1689.35	-26.5
1692.04	-21
1694.74	-35
1697.43	-27
1700.11	-30.5
1702.8	-31.5
1705.48	-31
1708.16	-20.5
1710.84	-37
1713.52	-10.5
1716.2	-37
1718.87	-25
1721.54	-43
1724.21	-21
1726.88	-23
1729.54	-26.5
1732.2	-20
1734.86	-23
1737.52	-24
1740.18	-24
1742.83	-13
1745.48	-17
1748.13	-22.5
1750.78	-25.5
1753.43	-26
1756.07	-27
1758.71	-20
1761.35	-35
1763.99	-18.5
1766.62	-30.5
1769.25	-23.5
1771.89	-39
1774.51	-13
1777.14	-31
1779.76	-34
1782.39	-28
1785.01	-46
1787.63	-37
1790.24	-36
1792.86	-31.5
1795.47	-36
1798.08	-42
1800.68	-26
1803.29	-38
1805.89	-34.5
1808.49	-44.5
1811.09	-35
1813.69	-40
1816.29	-25
1818.88	-29.5
1821.47	-40.5
1824.06	-37
1826.65	-40
1829.23	-26.5
1831.81	-23
1834.39	-35.5
1836.97	-31
1839.55	-34
1842.12	-37
1844.69	-44
1847.26	-37
1849.83	-28.5
1852.4	-31
1854.96	-23
1857.52	-37
1860.08	-21
1862.64	-42
1865.19	-36
1867.75	-31
1870.3	-31
1872.85	-47
1875.4	-22
1877.94	-31
1880.48	-29
1883.02	-16
1885.56	-34.5
1888.1	-14
1890.63	-35.5
1893.17	-28
1895.7	-27.5
1898.23	-34
1900.75	-51
1903.28	-32.5
1905.8	-32.5
1908.32	-28.5
1910.84	-30
1913.35	-24.5
1915.87	-15.5
1918.38	-19
1920.89	-33.5
1923.4	-31.5
1925.9	-30
1928.41	-29
1930.91	-32
1933.41	-31
1935.9	-32.5
1938.4	-20.5
1940.89	-28
1943.38	-29
1945.87	-25
1948.36	-27.5
1950.84	-41
1953.33	-40
1955.81	-53
1958.29	-25
1960.76	-23
1963.24	-30.5
1965.71	-34
1968.18	-31
1970.65	-37
1973.12	-27
1975.58	-34
1978.04	-19
1980.5	-34.5
1982.96	-44
1985.42	-39
1987.87	-18.5
1990.32	-30.5
1992.78	-31
1995.22	-43.5
1997.67	-39.8524
2000.11	-33.3688
2002.56	-33.0055
2004.99	-25.3014
2007.43	-24.363
2009.87	-32.583
2012.3	-27.3553
2014.73	-25.8553
2017.16	-29.3229
2019.59	-34.091
2022.02	-31.0182
2024.44	-34.0882
2026.86	-34.6908
2029.28	-31.2264
2031.7	-23.8241
2034.11	-29.1276
2036.53	-30.7821
2038.94	-32.1333
2041.35	-25.0517
2043.76	-22.7075
2046.16	-27.1065
2048.56	-28.5601
2050.97	-33.0266
2053.36	-26.9082
2055.76	-19.1418
2058.16	-23.7101
2060.55	-17.4266
2062.94	-28.4844
2065.33	-31.1238
2067.72	-23.8693
2070.1	-17.7871
2072.49	-18.5017
2074.87	-25.1666
2077.25	-28.8865
2079.62	-2.92964
2081.38	-12.5
2083.86	-13.5
2086.34	-10.5
2088.81	-13
2091.29	-25
2093.76	-10.5
2096.23	-19
2098.7	-19
2101.17	-16
2103.64	-21.5
2106.1	-12
2108.56	-25
2111.03	-13
2113.48	-27
2115.94	-17
2118.4	-22.5
2120.85	-23
2123.3	-17
2125.76	-25
2128.2	-21
2130.65	-13.5
2133.1	-9.5
2135.54	-9.5
2137.98	-20
2140.42	-26
2142.86	-14
2145.3	-8.5
2147.73	-14.5
2150.16	-5
2152.6	-19
2155.02	-24
2157.45	-20.5
2159.88	-10
2162.3	-20
2164.73	-22
2167.15	-20
2169.57	-18.5
2171.98	-22
2174.4	-15
2176.81	-9
2179.22	-18.5
2181.63	-40
2184.04	-21
2186.45	-16.5
2188.86	-16
2191.26	-16
2193.66	-35
2196.06	-37.5
2198.46	-28
2200.85	-18.5
2203.25	-20.5
2205.64	-22.5
2208.03	-28.5
2210.42	-29.5
2212.81	-31
2215.2	-25
2217.58	-23
2219.96	-41
2222.34	-34.5
2224.72	-35.5
2227.1	-37
2229.47	-19.5
2231.85	-18
2234.22	-44
2236.59	-38
2238.96	-32
2241.33	-27.5
2243.69	-24
2246.05	-25
2248.41	-40
2250.77	-30
2253.13	-44
2255.49	-27.5
2257.84	-16
2260.2	-20
2262.55	-43
2264.9	-26.5
2267.24	-34.5
2269.59	-33
2271.93	-21
2274.28	-37
2276.62	-34
2278.96	-28.5
2281.29	-27
2283.63	-25
2285.96	-30
2288.29	-41
2290.62	-33
2292.95	-23.5
2295.28	-21
2297.6	-28
2299.93	-38.5
2302.25	-29.5
2304.57	-38
2306.89	-31.5
2309.2	-25
2311.52	-34.5
2313.83	-48
2316.14	-47
2318.45	-37.5
2320.76	-28.5
2323.06	-47.5
2325.37	-16
2327.67	-30.5
2329.97	-41
2332.27	-37.5
2334.57	-41
2336.86	-20.5
2339.16	-38
2341.45	-47.5
2343.74	-36
2346.03	-31
2348.31	-48
2350.6	-29.5
2352.88	-42
2355.17	-40
2357.45	-34.5
2359.72	-19
2362	-33.5
2364.28	-33
2366.55	-56
2368.82	-32
2371.09	-43
2373.36	-47.5
2375.62	-24.5
2377.89	-37.5
2380.15	-46.5
2382.41	-26
2384.67	-29
2386.93	-21.5
2389.18	-33
2391.44	-37.5
2393.69	-31
2395.94	-32.5
2398.19	-33
2400.44	-29.5
2402.68	-39.5
2404.93	-38.5
2407.17	-41
2409.41	-21
2411.65	-37
2413.89	-30
2416.12	-30
2418.35	-29
2420.59	-36
2422.82	-26.5
2425.04	-30
2427.27	-38.5
2429.5	-43
2431.72	-37
2433.94	-37
2436.16	-34.5
2438.38	-31
2440.59	-27.5
2442.81	-40
2445.02	-31
2447.23	-31.5
2449.44	-34.5
2451.65	-31
2453.86	-35
2456.06	-35
2458.26	-39.5
2460.46	-25
2462.66	-31.5
2464.86	-35
2467.06	-33
2469.25	-28.5
2471.44	-39
2473.63	-23.5
2475.82	-32.5
2478.01	-42
2480.19	-44
2482.38	-33
2484.56	-38
2486.74	-30
2488.92	-37
2491.1	-28
2493.27	-32
2495.45	-47
2497.62	-32.5
2499.79	-25.5
2501.96	-28
2504.12	-36
2506.29	-48
2508.45	-32
2510.61	-25.5
2512.77	-24
2514.93	-36
2517.09	-53
2519.24	-37
2521.4	-42
2523.55	-41
2525.7	-34
2527.84	-32
2529.99	-33
2532.14	-28
2534.28	-25.5
2536.42	-33
2538.56	-29
2540.7	-23.5
2542.83	-37
2544.97	-36.5
2547.1	-42.5
2549.23	-26
2551.36	-35
2553.49	-37
2555.61	-40
2557.74	-33.5
2559.86	-25.5
2561.98	-32.5
2564.1	-30.5
2566.22	-46
2568.33	-26
2570.45	-43
2572.56	-39
2574.67	-25.5
2576.78	-27
2578.89	-34.5
2580.99	-42
2583.1	-29.5
2585.2	-23
2587.3	-31
2589.4	-60
2591.5	-29.5
2593.59	-45
2595.68	-30.5
2597.78	-26
2599.87	-45
2601.96	-42
2604.04	-35
2606.13	-19.5
2608.21	-21
2610.29	-18.5
2612.37	-35
2614.45	-36
2616.53	-43
2618.6	-36.5
2620.68	-28
2622.75	-39
2624.82	-36.5
2626.89	-56
2628.96	-36
2631.02	-35
2633.08	-19
2635.15	-42
2637.21	-53.5
2639.26	-40
2641.32	-30.5
2643.38	-40.5
2645.43	-30.5
2647.48	-34
2649.53	-39
2651.58	-36
2653.63	-30
2655.67	-28.5
2657.71	-33.5
2659.76	-44
2661.8	-48
2663.83	-29
2665.87	-44
2667.91	-29
2669.94	-30
2671.97	-49
2674	-33
2676.03	-30.5
2678.06	-23
2680.08	-32.5
2682.1	-43
2684.12	-32
2686.14	-35
2688.16	-28.5
2690.18	-20
2692.19	-33
2694.21	-29.8054
2696.22	-31.2136
2698.23	-25.1335
2700.24	-18.0597
2702.24	-26.077
2704.25	-31.2772
2706.25	-28.693
2708.25	-26.5731
2710.25	-30.5896
2712.25	-20.3575
2714.25	-18.3329
2716.24	-26.963
2718.23	-33.6052
2720.23	-31.9676
2722.22	-27.7497
2724.2	-23.8424
2726.19	-23.0185
2728.18	-30.4976
2730.16	-30.9718
2732.14	-25.0684
2734.12	-24.057
2736.1	-20.3511
2738.07	-35.791
2740.05	-26.9655
2742.02	-22.3902
2743.99	-15.0515
2745.96	-30.2626
2747.93	-30.3992
2749.9	-22.2558
2751.86	-13.4442
2753.83	-15.9142
2755.79	-24.7398
2757.75	-27.9091
2759.71	-17.472
2761.66	-15.2358
2763.63	-29
2765.69	-22
2767.75	-26
2769.81	-10
2771.87	-14
2773.92	-19
2775.97	-30
2778.03	-20.5
2780.08	-24
2782.12	-22
2784.17	-4
2786.22	-19.5
2788.26	-39
2790.31	-34
2792.35	-3.5
2794.39	-5.5
2796.43	-10
2798.46	-29
2800.5	-29.5
2802.54	-28
2804.57	-10
2806.6	-14
2808.63	-12.5
2810.66	-32
2812.69	-31
2814.71	-14
2816.74	-12
2818.76	-12.5
2820.78	-20.5
2822.8	-30
2824.82	-27
2826.84	-26
2828.86	-11
2830.87	-10
2832.88	-31.5
2834.9	-30
2836.91	-30
2838.91	-19
2840.92	-4
2842.93	-16.5
2844.93	-25.5
2846.93	-28
2848.94	-20
2850.94	-9
2852.94	-9.5
2854.93	-23.5
2856.93	-36
2858.92	-23.5
2860.92	-11
2862.91	-5
2864.9	-0.5
2866.89	-23.5
2868.87	-42
2870.86	-27
2872.84	-23
2874.83	1.5
2876.81	-27
2878.79	-23
2880.77	-38
2882.75	-29.5
2884.72	-8.5
2886.7	-15.5
2888.67	-28
2890.64	-24.5
2892.61	-33
2894.58	-12
2896.55	-21
2898.51	-17
2900.48	-30.5
2902.44	-41
2904.4	-21.5
2906.36	-20
2908.32	-18
2910.28	-14
2912.23	-16
2914.19	-28.5
2916.14	-20
2918.09	-27
2920.04	-38
2921.99	-30
2923.94	-27
2925.88	-28.5
2927.83	-23.5
2929.77	-13
2931.71	-31.5
2933.65	-28.5
2935.59	-37
2937.53	-23.5
2939.46	-30
2941.4	-18
2943.33	-26
2945.26	-28
2947.19	-48
2949.12	-39
2951.05	-35
2952.98	-20
2954.9	-34.5
2956.82	-48
2958.74	-34.5
2960.66	-40
2962.58	-16.5
2964.5	-24
2966.42	-32
2968.33	-38
2970.24	-42
2972.15	-25
2974.06	-18.5
2975.97	-26.5
2977.88	-38.5
2979.79	-41.5
2981.69	-53
2983.59	-40
2985.49	-23
2987.39	-35.5
2989.29	-39
2991.19	-48
2993.09	-22.5
2994.98	-27.5
2996.87	-26
2998.77	-38
3000.66	-46.5
3002.54	-40.5
3004.43	-40
3006.32	-32
3008.2	-26
3010.08	-37
3011.97	-27
3013.85	-35
3015.72	-26
3017.6	-23
3019.48	-30.5
3021.35	-43
3023.23	-37
3025.1	-54
3026.97	-25
3028.84	-25
3030.7	-30.5
3032.57	-37.5
3034.43	-44.5
3036.3	-16
3038.16	-22
3040.02	-26.5
3041.88	-41
3043.73	-44
3045.59	-41
3047.44	-22.5
3049.3	-28.5
3051.15	-42.5
3053	-30
3054.85	-41
3056.7	-34.5
3058.54	-30
3060.39	-24.5
3062.23	-40
3064.07	-54
3065.91	-43
3067.75	-24
3069.59	-25.5
3071.42	-25
3073.26	-40
3075.09	-48
3076.92	-32
3078.75	-35
3080.58	-19
3082.41	-38.5
3084.24	-42
3086.06	-47
3087.88	-44.5
3089.71	-14.5
3091.53	-27
3093.34	-27
3095.16	-47
3096.98	-37.5
3098.79	-40
3100.61	-20
3102.42	-31.5
3104.23	-49
3106.04	-44
3107.85	-28
3109.65	-24
3111.46	-25
3113.26	-36.5
3115.06	-36.5
3116.86	-46
3118.66	-28.5
3120.46	-24
3122.26	-34
3124.05	-54
3125.84	-47
3127.64	-33.5
3129.43	-32
3131.22	-29.5
3133	-35
3134.79	-45.5
3136.58	-30.5
3138.36	-39.5
3140.14	-16
3141.92	-29.5
3143.7	-39
3145.48	-49.5
3147.26	-41
3149.03	-32.5
3150.8	-24
3152.58	-25.5
3154.35	-42.5
3156.12	-34
3157.88	-35
3159.65	-28
3161.42	-27
3163.18	-28
3164.94	-27.5
3166.7	-33.5
3168.46	-45.5
3170.22	-26
3171.98	-23.5
3173.73	-30
3175.49	-44.5
3177.24	-38.5
3178.99	-31
3180.74	-14
3182.49	-20
3184.23	-53
3185.98	-43
3187.72	-32
3189.47	-25
3191.21	-33
3192.95	-29
3194.69	-35.5
3196.42	-33
3198.16	-34
3199.89	-43