File: raman_enhancement_factor/Renata_Raman_12_12_2025/Oil_BHT_0_08_50Xlens_785_1200grating_25%_acc3_acq3s_AE50000_1.txt
100.582	458
104.437	439.5
108.287	406.5
112.136	391
115.981	393
119.823	369.5
123.663	359.5
127.499	350
131.333	331
135.163	350
138.992	323
142.816	301
146.637	293.5
150.457	268
154.273	249.5
158.086	257
161.896	249
165.703	240
169.507	223
173.309	208
177.107	221
180.902	185
184.695	204
188.485	183
192.272	180.5
196.055	167.5
199.837	204.5
203.615	183
207.39	183
211.162	166
214.932	153
218.697	175
222.462	158
226.222	160
229.98	149.5
233.734	145.5
237.486	139.5
241.235	172.5
244.981	183
248.725	251
252.465	225
256.203	152
259.937	166.5
263.669	152
267.398	154
271.123	133
274.846	123.5
278.566	117.5
282.283	138
285.998	136
289.71	120
293.418	107.5
297.123	103
300.826	92
304.526	102
308.223	115
311.917	110
315.609	103.5
319.297	102
322.982	94.5
326.665	111
330.345	98
334.022	102.5
337.696	94
341.367	92.5
345.036	95
348.701	99
352.363	91.5
356.023	87.5
359.68	88
363.334	84
366.986	89
370.633	76
374.279	81
377.921	60
381.562	66.5
385.198	82
388.832	71
392.463	78.5
396.092	62
399.717	61
403.34	60.5
406.96	69
410.576	73
414.191	63.5
417.802	72
421.41	58
425.016	55.5
428.619	51
432.218	46
435.815	36
439.41	52.5
443.001	60
446.59	63.5
450.175	54
453.758	63
457.339	74.5
460.916	52.5
464.49	47
468.062	58.5
471.631	48
475.196	52
478.76	58
482.32	41.5
485.877	47.5
489.432	54.5
492.984	51.5
496.533	46.5
500.079	47
503.622	42.5
507.163	33
510.701	51.5
514.236	41
517.768	41
521.297	31.5
524.823	38
528.348	23
531.868	43
535.386	41
538.902	32
542.414	37
545.924	16.5
549.431	43
552.935	37
556.436	27
559.935	12
563.431	27.5
566.924	15
570.414	24
573.901	41.5
577.385	33
580.867	38
584.347	30
587.822	19
591.296	46.5
594.767	42
598.234	37
601.699	32
605.161	28.5
608.621	23
612.078	26.5
615.532	28.5
618.983	30
622.431	20.5
625.877	24
629.32	35
632.76	32
636.197	28.5
639.632	13.5
643.064	16
646.493	11
649.919	23
653.342	30
656.764	24.5
660.181	22
663.596	7.5
667.009	20
670.419	19.5
673.826	4.5
677.23	9.5
680.631	5
684.03	20
687.426	-3
690.819	27.5
694.21	29.5
697.597	15.5
700.982	13
704.364	13
707.744	22
711.12	32
714.495	31
717.865	34.5
721.234	28
724.6	21
727.962	21
731.323	28.5
734.681	26.5
738.036	22
741.387	7
744.736	23
748.083	26.5
751.427	24.5
754.768	20.5
758.107	19.5
761.443	26.5
764.776	30.5
768.106	25
771.434	24
774.758	9
778.081	22
781.399	15
784.716	20
788.03	15.5
791.341	5
794.65	14
797.956	21
801.259	20
804.559	22.5
807.857	29
811.152	34
814.444	19
817.733	18
821.02	28
824.305	37
827.586	41.5
830.865	44
834.141	47
837.414	58.5
840.685	76.5
843.952	64
847.218	44.5
850.48	44
853.74	30
856.997	50
860.252	52
863.504	50
866.753	63.5
869.999	46
873.243	43
876.484	52
879.722	45.5
882.958	45
886.191	42
889.421	53
892.649	51
895.874	50
899.096	30.5
902.315	58.5
905.533	45
908.747	48
911.958	48
915.167	43.5
918.374	36.5
921.577	24
924.778	39.5
927.977	35
931.173	38
934.365	31.5
937.556	31
940.743	22
943.928	28
947.11	44
950.29	42.5
953.467	30
956.641	31
959.813	31
962.982	40.5
966.149	45.5
969.312	33.5
972.473	48
975.631	30
978.787	32
981.94	20
985.091	24
988.239	15.5
991.384	25
994.527	11
997.666	17
1000.8	24
1003.94	16
1007.07	26
1010.2	28
1013.33	9
1016.45	25
1019.57	18.5
1022.69	13.5
1025.81	23
1028.92	32
1032.03	24.5
1035.14	18
1038.25	31
1041.35	29.5
1044.45	25
1047.55	17
1050.64	35
1053.74	25.5
1056.83	20
1059.91	22
1063	37
1066.08	35
1069.16	30
1072.24	43
1075.31	48.5
1078.38	42
1081.45	43.5
1084.52	38
1087.58	37.5
1090.64	38
1093.7	41.5
1096.76	28
1099.81	17.5
1102.86	13.5
1105.91	35
1108.96	28.5
1112	30
1115.04	24
1118.08	19.5
1121.11	26
1124.15	15
1127.18	2.5
1130.2	12.5
1133.23	0.5
1136.25	-11
1139.27	12
1142.29	13
1145.3	0
1148.32	2
1151.33	-12.2914
1154.33	-0.609545
1157.34	3.1715
1160.34	10.1418
1163.34	1.16234
1166.33	-0.227729
1169.33	0.713114
1172.32	12.3372
1175.31	13.9417
1178.3	14.9506
1181.28	-2.38483
1184.26	16.7594
1187.24	8.08407
1190.22	1.00231
1193.19	10.4625
1196.16	4.45335
1199.13	8.82261
1202.09	11.0617
1205.06	8.29593
1208.02	11.4347
1210.98	4.52844
1213.93	22.7987
1216.89	20.5934
1219.84	6.47389
1222.78	20.1603
1225.73	16.8004
1228.67	24.1246
1231.61	26.0525
1234.55	8.99516
1237.49	24.0345
1240.42	20.7899
1243.35	35.0966
1246.28	44.2762
1249.2	41.1346
1252.12	44.0667
1254.74	35
1257.76	72
1260.79	59
1263.81	51
1266.82	60
1269.84	72
1272.85	70
1275.86	62
1278.87	40
1281.88	44.5
1284.88	46
1287.89	32
1290.89	63.5
1293.88	73
1296.88	65.5
1299.87	78
1302.86	76
1305.85	64
1308.84	53
1311.83	39
1314.81	46
1317.79	30
1320.77	34
1323.74	37
1326.72	29.5
1329.69	7
1332.66	21
1335.62	21
1338.59	36
1341.55	28.5
1344.51	21.5
1347.47	19
1350.43	29
1353.38	21
1356.33	25
1359.28	14
1362.23	7
1365.17	35.5
1368.12	30.5
1371.06	15.5
1373.99	21
1376.93	29.5
1379.86	18
1382.8	11
1385.73	9.5
1388.65	14
1391.58	20
1394.5	8
1397.42	11
1400.34	19.5
1403.26	9
1406.17	18
1409.08	17.5
1411.99	13.5
1414.9	15
1417.81	19
1420.71	3
1423.61	19.5
1426.51	31
1429.41	46.5
1432.3	53.5
1435.2	90.5
1438.09	95
1440.97	69.5
1443.86	70
1446.74	54.5
1449.63	58
1452.5	44.5
1455.38	48
1458.26	42
1461.13	21
1464	37
1466.87	10
1469.73	10
1472.6	4.5
1475.46	17
1478.32	-11
1481.18	1.5
1484.03	2.5
1486.89	-32
1489.74	-3
1492.59	-2.5
1495.43	-11
1498.28	-18
1501.12	-4.5
1503.96	-1
1506.8	-10.5
1509.64	-8
1512.47	-11.5
1515.3	-14
1518.13	-8
1520.96	-5
1523.78	-9.5
1526.6	-14
1529.43	-18
1532.24	-9.5
1535.06	-16.5
1537.88	-2.5
1540.69	-14
1543.5	-10.5
1546.3	-21
1549.11	1.5
1551.91	-20
1554.72	-16
1557.51	-18.5
1560.31	-2
1563.11	-13.5
1565.9	-30
1568.69	-7
1571.48	-10.5
1574.26	-1
1577.05	-15
1579.83	-35
1582.61	-21
1585.39	-15.5
1588.16	-30.5
1590.94	-19
1593.71	-9.5
1596.48	-10
1599.24	-19
1602.01	1.5
1604.77	-19
1607.53	-21
1610.29	-26
1613.05	-27
1615.8	-8.5
1618.55	-19.5
1621.3	-19.5
1624.05	-16.5
1626.79	-4.5
1629.54	5
1632.28	-5.5
1635.02	-10
1637.75	-14
1640.49	-18
1643.22	-2
1645.95	27.5
1648.68	15
1651.41	55
1654.13	48.5
1656.85	60
1659.57	43
1662.29	28.5
1665.01	9
1667.72	-9.5
1670.43	-26
1673.14	-11
1675.85	-12.5
1678.55	-19
1681.25	-1.5
1683.95	-20.5
1686.65	-27
1689.35	-29
1692.04	-29
1694.74	-40.5
1697.43	-19
1700.11	-23.5
1702.8	-40
1705.48	-40
1708.16	-10
1710.84	-17
1713.52	-19
1716.2	-23.5
1718.87	-32
1721.54	-24
1724.21	-36
1726.88	-25
1729.54	-26.5
1732.2	-21.5
1734.86	-7
1737.52	-6.5
1740.18	-20
1742.83	-20.5
1745.48	-10
1748.13	-13
1750.78	-16
1753.43	-4.25
1756.07	-5.5
1758.71	-28
1761.35	-16.5
1763.99	-42
1766.62	-8.5
1769.25	7
1771.89	-25.5
1774.51	-30.5
1777.14	-24
1779.76	-26
1782.39	-20.5
1785.01	-22.5
1787.63	-23.5
1790.24	-29
1792.86	-39
1795.47	-24
1798.08	-26
1800.68	-21.5
1803.29	-30.5
1805.89	-31
1808.49	-19
1811.09	-32
1813.69	-26.5
1816.29	-28.5
1818.88	-26.5
1821.47	-34
1824.06	-16
1826.65	-20.5
1829.23	-30
1831.81	-34.5
1834.39	-21.5
1836.97	-15.5
1839.55	-24.5
1842.12	-28.5
1844.69	-31.5
1847.26	-38
1849.83	-38
1852.4	-22.5
1854.96	-33
1857.52	-18
1860.08	-32
1862.64	-19.5
1865.19	-50
1867.75	-38
1870.3	-13.5
1872.85	-29.5
1875.4	-30.5
1877.94	-20.5
1880.48	-18
1883.02	-31
1885.56	-25
1888.1	-16
1890.63	-23
1893.17	-25.5
1895.7	-27
1898.23	-28
1900.75	-23
1903.28	-30
1905.8	-26.5
1908.32	-30
1910.84	-34
1913.35	-13.5
1915.87	-21
1918.38	-25
1920.89	-28
1923.4	-25
1925.9	-18.5
1928.41	-29
1930.91	-31.5
1933.41	-20
1935.9	-34
1938.4	-42
1940.89	-18
1943.38	-20
1945.87	-28
1948.36	-22
1950.84	-33
1953.33	-25
1955.81	-28
1958.29	-20.5
1960.76	-26
1963.24	-27.5
1965.71	-25
1968.18	-25
1970.65	-16
1973.12	-27
1975.58	-24.5
1978.04	-24
1980.5	-38
1982.96	-31
1985.42	-27
1987.87	-28
1990.32	-24.5
1992.78	-28
1995.22	-18.5
1997.67	-16.9619
2000.11	-24.9791
2002.56	-32.2017
2004.99	-35.5879
2007.43	-20.391
2009.87	-40.6847
2012.3	-27.5779
2014.73	-29.2654
2017.16	-24.4289
2019.59	-22.5932
2022.02	-20.6749
2024.44	-14.8839
2026.86	-26.5988
2029.28	-19.138
2031.7	-22.0344
2034.11	-27.3217
2036.53	-26.0027
2038.94	-20.2833
2041.35	-22.9126
2043.76	-18.3227
2046.16	-26.5445
2048.56	-22.8821
2050.97	-28.427
2053.36	-21.0057
2055.76	-20.023
2058.16	-18.8719
2060.55	-24.4504
2062.94	-19.754
2065.33	-15.7068
2067.72	-20.5733
2070.1	-22.8777
2072.49	-22.9004
2074.87	-23.8448
2077.25	-28.2274
2079.62	-11.9321
2081.38	-23
2083.86	-6.5
2086.34	-13
2088.81	-1.5
2091.29	-4
2093.76	-21
2096.23	-17
2098.7	-17.5
2101.17	-4.5
2103.64	-17.5
2106.1	-16
2108.56	-25
2111.03	-35
2113.48	-19
2115.94	-11
2118.4	-15
2120.85	-29
2123.3	-22
2125.76	-23
2128.2	-14
2130.65	-13
2133.1	-7
2135.54	-30.5
2137.98	-35
2140.42	-16
2142.86	3
2145.3	-11
2147.73	-9
2150.16	-24
2152.6	-9
2155.02	-22
2157.45	-26
2159.88	-13
2162.3	-21.5
2164.73	-17.5
2167.15	-22
2169.57	-19.5
2171.98	-13
2174.4	-14
2176.81	-21.5
2179.22	-14.5
2181.63	-31
2184.04	-16
2186.45	-18.5
2188.86	-29.5
2191.26	-22.5
2193.66	-32
2196.06	-15
2198.46	-12
2200.85	-21.5
2203.25	-31.5
2205.64	-25
2208.03	-30
2210.42	-29.5
2212.81	-32.5
2215.2	-28.5
2217.58	-27.5
2219.96	-40
2222.34	-30
2224.72	-28
2227.1	-21.5
2229.47	-45.5
2231.85	-28
2234.22	-25.5
2236.59	-30.5
2238.96	-16
2241.33	-32.5
2243.69	-40
2246.05	-37
2248.41	-32.5
2250.77	-36
2253.13	-29
2255.49	-31.5
2257.84	-21.5
2260.2	-39
2262.55	-22.5
2264.9	-13.5
2267.24	-39
2269.59	-30
2271.93	-39.5
2274.28	-52
2276.62	-35
2278.96	-24
2281.29	-28
2283.63	-34
2285.96	-34
2288.29	-27
2290.62	-18
2292.95	-27
2295.28	-25.5
2297.6	-37
2299.93	-37
2302.25	-46
2304.57	-31
2306.89	-33.5
2309.2	-35
2311.52	-36
2313.83	-32.5
2316.14	-17
2318.45	-22.5
2320.76	-31
2323.06	-39
2325.37	-44
2327.67	-42
2329.97	-17
2332.27	-24
2334.57	-38.5
2336.86	-47
2339.16	-33
2341.45	-25.5
2343.74	-18.5
2346.03	-28.5
2348.31	-38
2350.6	-41
2352.88	-44
2355.17	-30
2357.45	-25.5
2359.72	-30
2362	-37
2364.28	-39.5
2366.55	-37
2368.82	-22
2371.09	-19.5
2373.36	-32
2375.62	-35
2377.89	-39
2380.15	-35
2382.41	-23
2384.67	-25.5
2386.93	-37.5
2389.18	-38
2391.44	-44
2393.69	-35
2395.94	-14
2398.19	-28.5
2400.44	-38.5
2402.68	-46
2404.93	-35
2407.17	-32
2409.41	-20
2411.65	-19.5
2413.89	-28.5
2416.12	-39
2418.35	-38
2420.59	-36
2422.82	-16
2425.04	-37
2427.27	-40
2429.5	-36
2431.72	-26
2433.94	-21.5
2436.16	-29
2438.38	-35
2440.59	-37
2442.81	-43
2445.02	-26
2447.23	-36
2449.44	-35
2451.65	-38.5
2453.86	-39
2456.06	-31
2458.26	-15
2460.46	-20
2462.66	-50.5
2464.86	-28
2467.06	-44
2469.25	-31
2471.44	-27.5
2473.63	-38.5
2475.82	-38
2478.01	-40
2480.19	-29
2482.38	-24
2484.56	-26
2486.74	-32.5
2488.92	-45
2491.1	-29
2493.27	-37
2495.45	-32
2497.62	-30
2499.79	-42.5
2501.96	-47.5
2504.12	-46
2506.29	-26
2508.45	-20
2510.61	-40.5
2512.77	-33
2514.93	-33.5
2517.09	-41
2519.24	-54
2521.4	-19.5
2523.55	-34
2525.7	-35
2527.84	-41
2529.99	-11.5
2532.14	-21.5
2534.28	-35
2536.42	-36
2538.56	-39.5
2540.7	-46.5
2542.83	-27.5
2544.97	-28
2547.1	-36.5
2549.23	-46
2551.36	-50
2553.49	-27
2555.61	-23.5
2557.74	-29
2559.86	-30
2561.98	-37
2564.1	-35
2566.22	-34
2568.33	-26
2570.45	-34.5
2572.56	-43
2574.67	-47.5
2576.78	-37
2578.89	-30
2580.99	-26.5
2583.1	-27
2585.2	-37
2587.3	-29
2589.4	-27
2591.5	-21.5
2593.59	-34
2595.68	-27
2597.78	-36.5
2599.87	-35
2601.96	-35
2604.04	-45
2606.13	-21.5
2608.21	-28
2610.29	-31
2612.37	-29.5
2614.45	-28.5
2616.53	-36
2618.6	-33
2620.68	-34
2622.75	-31
2624.82	-44
2626.89	-32
2628.96	-31.5
2631.02	-35
2633.08	-44
2635.15	-39
2637.21	-32
2639.26	-30
2641.32	-37.5
2643.38	-15
2645.43	-19
2647.48	-36.5
2649.53	-33
2651.58	-20.5
2653.63	-29.5
2655.67	-39
2657.71	-52
2659.76	-39.5
2661.8	-32.5
2663.83	-36.5
2665.87	-31
2667.91	-27
2669.94	-27.5
2671.97	-28.5
2674	-29
2676.03	-24
2678.06	-28
2680.08	-31
2682.1	-41
2684.12	-32
2686.14	-26.5
2688.16	-28.5
2690.18	-23
2692.19	-33
2694.21	-30.78
2696.22	-19.2919
2698.23	-21.1726
2700.24	-29.0487
2702.24	-30.4924
2704.25	-32.0037
2706.25	-37.1214
2708.25	-25.5253
2710.25	-27.7267
2712.25	-26.1854
2714.25	-32.9319
2716.24	-38.045
2718.23	-20.8415
2720.23	-28.5624
2722.22	-25.9032
2724.2	-30.0545
2726.19	-36.4014
2728.18	-35.3229
2730.16	-24.6004
2732.14	-25.1102
2734.12	-23.0547
2736.1	-23.2215
2738.07	-26.026
2740.05	-20.2201
2742.02	-27.1619
2743.99	-33.3523
2745.96	-21.3795
2747.93	-19.5856
2749.9	-12.459
2751.86	-15.4446
2753.83	-14.4221
2755.79	-23.7602
2757.75	-17.876
2759.71	-23.5866
2761.66	-17.8786
2763.63	-22
2765.69	-16.5
2767.75	-23
2769.81	-8
2771.87	-27.5
2773.92	-11.5
2775.97	-33
2778.03	-10
2780.08	-9
2782.12	-20.5
2784.17	-26.5
2786.22	-18
2788.26	-9
2790.31	-15
2792.35	-10.5
2794.39	-7
2796.43	-6.5
2798.46	-31
2800.5	-13.5
2802.54	-19
2804.57	-14.5
2806.6	-20
2808.63	-26
2810.66	-16.5
2812.69	-23.5
2814.71	-5.5
2816.74	-12
2818.76	-7
2820.78	-18
2822.8	-23.5
2824.82	-17.5
2826.84	-17.5
2828.86	-16.5
2830.87	-31.5
2832.88	-20
2834.9	-19
2836.91	-19.5
2838.91	-18.5
2840.92	-7
2842.93	-47
2844.93	-17
2846.93	-13
2848.94	-11
2850.94	0
2852.94	-11
2854.93	-13
2856.93	-29
2858.92	2
2860.92	-8
2862.91	-6
2864.9	-21.5
2866.89	-15.5
2868.87	-18.5
2870.86	-12
2872.84	-5
2874.83	-21
2876.81	-20
2878.79	-26
2880.77	-23
2882.75	-16
2884.72	-20
2886.7	-21.5
2888.67	-30.5
2890.64	-27
2892.61	-15
2894.58	-14
2896.55	-24
2898.51	-36
2900.48	-40
2902.44	-25
2904.4	-17
2906.36	-12.5
2908.32	-35
2910.28	-35
2912.23	-16
2914.19	-15.5
2916.14	-10
2918.09	-24.5
2920.04	-27
2921.99	-35
2923.94	-18.5
2925.88	-7.5
2927.83	-18.5
2929.77	-23
2931.71	-54
2933.65	-21.5
2935.59	-28.5
2937.53	-12.5
2939.46	-33.5
2941.4	-29.5
2943.33	-35
2945.26	-33
2947.19	-29
2949.12	-9
2951.05	-28.5
2952.98	-47
2954.9	-28
2956.82	-40
2958.74	-23.5
2960.66	-21.5
2962.58	-23
2964.5	-39
2966.42	-48
2968.33	-25
2970.24	-23.5
2972.15	-24
2974.06	-33
2975.97	-37
2977.88	-39
2979.79	-32
2981.69	-31.5
2983.59	-31
2985.49	-41.5
2987.39	-48
2989.29	-34
2991.19	-24.5
2993.09	-34
2994.98	-17.5
2996.87	-30
2998.77	-46
3000.66	-26
3002.54	-29
3004.43	-35.5
3006.32	-36
3008.2	-38.5
3010.08	-31
3011.97	-32.5
3013.85	-18
3015.72	-41
3017.6	-39
3019.48	-43
3021.35	-29
3023.23	-25
3025.1	-32
3026.97	-33.5
3028.84	-33
3030.7	-31
3032.57	-24
3034.43	-21
3036.3	-35
3038.16	-30.5
3040.02	-51
3041.88	-36
3043.73	-33
3045.59	-32
3047.44	-37.5
3049.3	-45
3051.15	-46
3053	-29.5
3054.85	-28
3056.7	-40
3058.54	-38.5
3060.39	-46
3062.23	-39
3064.07	-35.5
3065.91	-41
3067.75	-40
3069.59	-37
3071.42	-35
3073.26	-34.5
3075.09	-30
3076.92	-38.5
3078.75	-24.5
3080.58	-36
3082.41	-33
3084.24	-43
3086.06	-33
3087.88	-42.5
3089.71	-43.5
3091.53	-37
3093.34	-35.5
3095.16	-37
3096.98	-37.5
3098.79	-27.5
3100.61	-41.5
3102.42	-26
3104.23	-49
3106.04	-27.5
3107.85	-42
3109.65	-30
3111.46	-44
3113.26	-51
3115.06	-33.5
3116.86	-42
3118.66	-26
3120.46	-31
3122.26	-42
3124.05	-49
3125.84	-37.5
3127.64	-36.5
3129.43	-43.5
3131.22	-43
3133	-32
3134.79	-47
3136.58	-40
3138.36	-37.5
3140.14	-37
3141.92	-31
3143.7	-49
3145.48	-38
3147.26	-36
3149.03	-35
3150.8	-34
3152.58	-32
3154.35	-31
3156.12	-40
3157.88	-29
3159.65	-39
3161.42	-34
3163.18	-33
3164.94	-43
3166.7	-34
3168.46	-25.5
3170.22	-28
3171.98	-23
3173.73	-38
3175.49	-29
3177.24	-25.5
3178.99	-30
3180.74	-43.5
3182.49	-58
3184.23	-25
3185.98	-36
3187.72	-28.5
3189.47	-30.5
3191.21	-29
3192.95	-43
3194.69	-36
3196.42	-30.5
3198.16	-23
3199.89	-31.5