File: raman_enhancement_factor/Renata_Raman_12_12_2025/Oil_BHT_0_008Au_sub.txt
100.582	560
104.437	515
108.287	481
112.136	444
115.981	435
119.823	423
123.663	387.5
127.499	384
131.333	397.5
135.163	372.5
138.992	344
142.816	332
146.637	308.5
150.457	276
154.273	286.5
158.086	270.5
161.896	259.5
165.703	242
169.507	231.5
173.309	232.5
177.107	218.5
180.902	218
184.695	177
188.485	195.5
192.272	180
196.055	197.5
199.837	186
203.615	194
207.39	167
211.162	175
214.932	168.5
218.697	165
222.462	185.5
226.222	173
229.98	155
233.734	134.5
237.486	143.5
241.235	163
244.981	196.5
248.725	183
252.465	164.5
256.203	137
259.937	167
263.669	152.5
267.398	147
271.123	150
274.846	107
278.566	111.5
282.283	115
285.998	133.5
289.71	113
293.418	114.5
297.123	105.5
300.826	108
304.526	109.5
308.223	113
311.917	88.5
315.609	66
319.297	78
322.982	96.5
326.665	105
330.345	89
334.022	90.5
337.696	78
341.367	56.5
345.036	92.5
348.701	90
352.363	89
356.023	63
359.68	57.5
363.334	69
366.986	85
370.633	67
374.279	59
377.921	61
381.562	67
385.198	73.5
388.832	54.5
392.463	66.5
396.092	38
399.717	70
403.34	60.5
406.96	66.5
410.576	55.5
414.191	57
417.802	50
421.41	62.5
425.016	45
428.619	52.5
432.218	65
435.815	34
439.41	37
443.001	42.5
446.59	69
450.175	60.5
453.758	55
457.339	45.5
460.916	36
464.49	31.5
468.062	41
471.631	38
475.196	22
478.76	44
482.32	11
485.877	27
489.432	44.5
492.984	46
496.533	49.5
500.079	25
503.622	25
507.163	36.5
510.701	39.5
514.236	18
517.768	34.5
521.297	19
524.823	45
528.348	13
531.868	42
535.386	43
538.902	25
542.414	16
545.924	16.5
549.431	32
552.935	10
556.436	24
559.935	20.5
563.431	17
566.924	12
570.414	20
573.901	23
577.385	20.5
580.867	13
584.347	15
587.822	29
591.296	25
594.767	21.5
598.234	12.5
601.699	15.5
605.161	15.5
608.621	19
612.078	30
615.532	27
618.983	0.5
622.431	13
625.877	14.5
629.32	3
632.76	30.5
636.197	22
639.632	16
643.064	13
646.493	7
649.919	28.5
653.342	0
656.764	4
660.181	2.5
663.596	13.5
667.009	7
670.419	7
673.826	18.5
677.23	9
680.631	-10
684.03	-2
687.426	10
690.819	25
694.21	3
697.597	-3
700.982	9
704.364	22
707.744	20
711.12	21
714.495	19
717.865	19
721.234	30
724.6	17
727.962	23.5
731.323	7
734.681	18
738.036	10
741.387	11.5
744.736	2
748.083	26
751.427	22
754.768	6.5
758.107	9
761.443	15
764.776	21.5
768.106	18
771.434	12.5
774.758	4
778.081	6
781.399	21
784.716	21
788.03	17
791.341	-1
794.65	16
797.956	23.5
801.259	8
804.559	34.5
807.857	27
811.152	2
814.444	21
817.733	26
821.02	38.5
824.305	38
827.586	48.5
830.865	42
834.141	62.5
837.414	66.5
840.685	72
843.952	71.5
847.218	49
850.48	50.5
853.74	58.5
856.997	58.5
860.252	64
863.504	67
866.753	71
869.999	73.5
873.243	61.5
876.484	71
879.722	43
882.958	38
886.191	23
889.421	49
892.649	59
895.874	49
899.096	47
902.315	38
905.533	32
908.747	58
911.958	69
915.167	58.5
918.374	40.5
921.577	15
924.778	40.5
927.977	41.5
931.173	35
934.365	45.5
937.556	30
940.743	26
943.928	45.5
947.11	46.5
950.29	49
953.467	29.5
956.641	31.5
959.813	31
962.982	41
966.149	62
969.312	41
972.473	56
975.631	33.5
978.787	39.5
981.94	26
985.091	29
988.239	24
991.384	1
994.527	10
997.666	24.5
1000.8	40.5
1003.94	23.5
1007.07	20
1010.2	24.5
1013.33	29.5
1016.45	38
1019.57	16
1022.69	41
1025.81	-1
1028.92	23
1032.03	12.5
1035.14	31.5
1038.25	25.5
1041.35	21
1044.45	27
1047.55	17
1050.64	19.5
1053.74	21
1056.83	35
1059.91	23
1063	42.5
1066.08	49
1069.16	58
1072.24	37
1075.31	59
1078.38	59
1081.45	52
1084.52	63
1087.58	58.5
1090.64	46
1093.7	32
1096.76	8
1099.81	33
1102.86	23
1105.91	27.5
1108.96	27
1112	14
1115.04	16
1118.08	29.5
1121.11	14
1124.15	31
1127.18	11
1130.2	-8
1133.23	-3
1136.25	15
1139.27	-2
1142.29	17.5
1145.3	13
1148.32	-4
1151.33	-1.58858
1154.33	-5.27693
1157.34	14.2912
1160.34	-5.18942
1163.34	-1.45693
1166.33	-12.6164
1169.33	-2.39274
1172.32	4.98597
1175.31	7.25041
1178.3	7.97859
1181.28	2.36932
1184.26	-3.16736
1187.24	6.88002
1190.22	-0.437413
1193.19	10.8997
1196.16	5.99517
1199.13	3.2184
1202.09	6.74548
1205.06	6.47593
1208.02	8.68739
1210.98	11.0366
1213.93	13.0745
1216.89	11.9584
1219.84	9.79202
1222.78	12.9281
1225.73	15.9795
1228.67	9.38503
1231.61	16.8203
1234.55	21.5478
1237.49	31.3831
1240.42	23.0608
1243.35	31.602
1246.28	44.1887
1249.2	58.0178
1252.12	64.2857
1254.74	71.5
1257.76	72.5
1260.79	78
1263.81	77
1266.82	68
1269.84	82
1272.85	61
1275.86	60
1278.87	53
1281.88	58
1284.88	35
1287.89	26
1290.89	61
1293.88	69
1296.88	80.5
1299.87	91.5
1302.86	71
1305.85	40
1308.84	52
1311.83	40
1314.81	43.5
1317.79	42
1320.77	27
1323.74	31.5
1326.72	22.5
1329.69	29.5
1332.66	16.5
1335.62	12.5
1338.59	25
1341.55	14.5
1344.51	14
1347.47	15
1350.43	10.5
1353.38	-3
1356.33	-2
1359.28	13
1362.23	3.5
1365.17	14
1368.12	7
1371.06	-2
1373.99	-8
1376.93	-9.5
1379.86	6
1382.8	-12.5
1385.73	-9
1388.65	-9
1391.58	-8.5
1394.5	6.5
1397.42	9
1400.34	-9
1403.26	-12.5
1406.17	-23
1409.08	1.5
1411.99	7
1414.9	10.5
1417.81	10
1420.71	10
1423.61	16
1426.51	24
1429.41	40
1432.3	75.5
1435.2	84.5
1438.09	88
1440.97	98.5
1443.86	81
1446.74	71.5
1449.63	60.5
1452.5	53.5
1455.38	56.5
1458.26	49
1461.13	51
1464	20.5
1466.87	15.5
1469.73	7
1472.6	-2
1475.46	-7
1478.32	-10
1481.18	0
1484.03	-12
1486.89	-15.5
1489.74	-15.5
1492.59	-20.5
1495.43	-16.5
1498.28	-20
1501.12	-19
1503.96	-22
1506.8	-17.5
1509.64	-17.5
1512.47	-18.5
1515.3	-17.5
1518.13	-21.5
1520.96	-11
1523.78	-22.5
1526.6	-13.5
1529.43	-24
1532.24	-16.5
1535.06	-35
1537.88	-30.5
1540.69	-23.5
1543.5	-27
1546.3	-17
1549.11	-20
1551.91	-20
1554.72	-17
1557.51	-16.5
1560.31	-19.5
1563.11	-21
1565.9	-37
1568.69	-22
1571.48	-36
1574.26	-33
1577.05	-17.5
1579.83	-33.5
1582.61	-23.5
1585.39	-26
1588.16	-32.5
1590.94	-22.5
1593.71	-28
1596.48	-37
1599.24	-14
1602.01	-23
1604.77	-25.5
1607.53	-15
1610.29	-32
1613.05	-28
1615.8	-20.5
1618.55	-9
1621.3	-19.5
1624.05	-12.5
1626.79	-28.5
1629.54	-18
1632.28	-25
1635.02	-7
1637.75	0
1640.49	-13.5
1643.22	-8
1645.95	9.5
1648.68	20
1651.41	51.5
1654.13	76.5
1656.85	69
1659.57	61
1662.29	19.5
1665.01	17
1667.72	3
1670.43	-10
1673.14	-21
1675.85	-16.5
1678.55	-21
1681.25	-28.5
1683.95	-26
1686.65	-27
1689.35	-12.5
1692.04	-26
1694.74	-24.5
1697.43	-16
1700.11	-19.5
1702.8	-19
1705.48	-23
1708.16	-17
1710.84	-36
1713.52	-17.5
1716.2	-31.5
1718.87	-17
1721.54	-33.5
1724.21	-25
1726.88	-30
1729.54	-15
1732.2	-20.5
1734.86	-28
1737.52	-24
1740.18	-14.5
1742.83	-9.5
1745.48	-13
1748.13	-25
1750.78	-27
1753.43	-15.25
1756.07	-21
1758.71	-2.5
1761.35	-29
1763.99	-34
1766.62	-25.5
1769.25	-19
1771.89	-18.5
1774.51	-23.5
1777.14	-24
1779.76	-36.5
1782.39	-17.5
1785.01	-33
1787.63	-23.5
1790.24	-34
1792.86	-39.5
1795.47	-23
1798.08	-30
1800.68	-21.5
1803.29	-31
1805.89	-28
1808.49	-45
1811.09	-33
1813.69	-40
1816.29	-30.5
1818.88	-24.5
1821.47	-29.5
1824.06	-26
1826.65	-25
1829.23	-22
1831.81	-29
1834.39	-26
1836.97	-44
1839.55	-35.5
1842.12	-29
1844.69	-23
1847.26	-23
1849.83	-29
1852.4	-41
1854.96	-44
1857.52	-30
1860.08	-24.5
1862.64	-22.5
1865.19	-23
1867.75	-25.5
1870.3	-26.5
1872.85	-17
1875.4	-31.5
1877.94	-23.5
1880.48	-38
1883.02	-46
1885.56	-30
1888.1	-31
1890.63	-23
1893.17	-33.5
1895.7	-37
1898.23	-26
1900.75	-26
1903.28	-23
1905.8	-27
1908.32	-33
1910.84	-23.5
1913.35	-35
1915.87	-24
1918.38	-31
1920.89	-33
1923.4	-20
1925.9	-33
1928.41	-29
1930.91	-30
1933.41	-28
1935.9	-27.5
1938.4	-40
1940.89	-39
1943.38	-40
1945.87	-5.5
1948.36	-22.5
1950.84	-26.5
1953.33	-41
1955.81	-26.5
1958.29	-38.5
1960.76	-21.5
1963.24	-23
1965.71	-21.5
1968.18	-37.5
1970.65	-29.5
1973.12	-31
1975.58	-20
1978.04	-29
1980.5	-30
1982.96	-22.5
1985.42	-31.5
1987.87	-28
1990.32	-50
1992.78	-35
1995.22	-29
1997.67	-38.431
2000.11	-15.6853
2002.56	-30.5164
2004.99	-19.2695
2007.43	-22.6439
2009.87	-30.0415
2012.3	-29.1878
2014.73	-24.0938
2017.16	-22.3712
2019.59	-29.0981
2022.02	-47.1058
2024.44	-24.3682
2026.86	-28.5689
2029.28	-21.2692
2031.7	-23.2051
2034.11	-23.9885
2036.53	-29.7571
2038.94	-25.1333
2041.35	-21.239
2043.76	-27.5566
2046.16	-24.3788
2048.56	-27.356
2050.97	-28.0125
2053.36	-28.0971
2055.76	-24.1933
2058.16	-19.6624
2060.55	-8.64316
2062.94	-15.2409
2065.33	-25.8671
2067.72	-17.2706
2070.1	-20.315
2072.49	-14.9506
2074.87	-21.9407
2077.25	-33.7381
2079.62	-16.6514
2081.38	-15.5
2083.86	-20.5
2086.34	-25.5
2088.81	-32
2091.29	-27
2093.76	-18.5
2096.23	-15.5
2098.7	-9
2101.17	-15
2103.64	-23
2106.1	-10.5
2108.56	3
2111.03	-11
2113.48	-37
2115.94	-25
2118.4	-23.5
2120.85	-8
2123.3	-15.5
2125.76	-19.5
2128.2	-15
2130.65	-31
2133.1	-22
2135.54	-2.5
2137.98	-8.5
2140.42	-17
2142.86	-12
2145.3	-20
2147.73	-12
2150.16	-18.5
2152.6	-10.5
2155.02	-19
2157.45	-13
2159.88	-21
2162.3	-25
2164.73	-24
2167.15	-21.5
2169.57	-33.5
2171.98	-22.5
2174.4	-20
2176.81	-22
2179.22	-15
2181.63	-27.5
2184.04	-24
2186.45	-32
2188.86	-18.5
2191.26	-13
2193.66	-11
2196.06	-21.5
2198.46	-22.5
2200.85	-30.5
2203.25	-12.5
2205.64	-29
2208.03	-6.5
2210.42	-33
2212.81	-32.5
2215.2	-34
2217.58	-34
2219.96	-29.5
2222.34	-32
2224.72	-35
2227.1	-31.5
2229.47	-17.5
2231.85	-15.5
2234.22	-16.5
2236.59	-38.5
2238.96	-39
2241.33	-48
2243.69	-24.5
2246.05	-22
2248.41	-28
2250.77	-29
2253.13	-19
2255.49	-22
2257.84	-30
2260.2	-18
2262.55	-33
2264.9	-28.5
2267.24	-38
2269.59	-37
2271.93	-29.5
2274.28	-32.5
2276.62	-35.5
2278.96	-33.5
2281.29	-31
2283.63	-33
2285.96	-23
2288.29	-37.5
2290.62	-32.5
2292.95	-35.5
2295.28	-40
2297.6	-33
2299.93	-25
2302.25	-32.5
2304.57	-30.5
2306.89	-33.5
2309.2	-31
2311.52	-32
2313.83	-37.5
2316.14	-20.5
2318.45	-48.5
2320.76	-37
2323.06	-34
2325.37	-18
2327.67	-30.5
2329.97	-45
2332.27	-23
2334.57	-57
2336.86	-25.5
2339.16	-20
2341.45	-44
2343.74	-39
2346.03	-33
2348.31	-42
2350.6	-31
2352.88	-29.5
2355.17	-39
2357.45	-52
2359.72	-35.5
2362	-21.5
2364.28	-31.5
2366.55	-34
2368.82	-36
2371.09	-33
2373.36	-42
2375.62	-22.5
2377.89	-16.5
2380.15	-23
2382.41	-48
2384.67	-36
2386.93	-36
2389.18	-32
2391.44	-29
2393.69	-31
2395.94	-34
2398.19	-32
2400.44	-37
2402.68	-34.5
2404.93	-23
2407.17	-34.5
2409.41	-34
2411.65	-36.5
2413.89	-35
2416.12	-33
2418.35	-30
2420.59	-34
2422.82	-38.5
2425.04	-40
2427.27	-37
2429.5	-28
2431.72	-28.5
2433.94	-35.5
2436.16	-33
2438.38	-34
2440.59	-27.5
2442.81	-34
2445.02	-38.5
2447.23	-35
2449.44	-32.5
2451.65	-36
2453.86	-30.5
2456.06	-27
2458.26	-41
2460.46	-38
2462.66	-43.5
2464.86	-28
2467.06	-33
2469.25	-46.5
2471.44	-49.5
2473.63	-42.5
2475.82	-31.5
2478.01	-27
2480.19	-23
2482.38	-46
2484.56	-35
2486.74	-41
2488.92	-40
2491.1	-34.5
2493.27	-26.5
2495.45	-39
2497.62	-33
2499.79	-30
2501.96	-39
2504.12	-35.5
2506.29	-43
2508.45	-28
2510.61	-34.5
2512.77	-36
2514.93	-38
2517.09	-35
2519.24	-49
2521.4	-37
2523.55	-27
2525.7	-23.5
2527.84	-24.5
2529.99	-25
2532.14	-27.5
2534.28	-38
2536.42	-25
2538.56	-30
2540.7	-17
2542.83	-37.5
2544.97	-41
2547.1	-36.5
2549.23	-25.5
2551.36	-16.5
2553.49	-22.5
2555.61	-33
2557.74	-33.5
2559.86	-28.5
2561.98	-38
2564.1	-37.5
2566.22	-23
2568.33	-24.5
2570.45	-37.5
2572.56	-39
2574.67	-37.5
2576.78	-27
2578.89	-43.5
2580.99	-41
2583.1	-35.5
2585.2	-46
2587.3	-26.5
2589.4	-21.5
2591.5	-35
2593.59	-31
2595.68	-39
2597.78	-30
2599.87	-36.5
2601.96	-49.5
2604.04	-35
2606.13	-36
2608.21	-33
2610.29	-33
2612.37	-39.5
2614.45	-19
2616.53	-32
2618.6	-38
2620.68	-27
2622.75	-17.5
2624.82	-24
2626.89	-31.5
2628.96	-55
2631.02	-37.5
2633.08	-22
2635.15	-16.5
2637.21	-21
2639.26	-36.5
2641.32	-36.5
2643.38	-19
2645.43	-27.5
2647.48	-19.5
2649.53	-24.5
2651.58	-29
2653.63	-36
2655.67	-45.5
2657.71	-26.5
2659.76	-32
2661.8	-37
2663.83	-47
2665.87	-37
2667.91	-24
2669.94	-26.5
2671.97	-29
2674	-25
2676.03	-37.5
2678.06	-31
2680.08	-9
2682.1	-28
2684.12	-29.5
2686.14	-36
2688.16	-27
2690.18	-39
2692.19	-27
2694.21	-39.8072
2696.22	-40.4289
2698.23	-29.1286
2700.24	-40.0258
2702.24	-28.0465
2704.25	-22.9447
2706.25	-26.2756
2708.25	-31.9752
2710.25	-29.573
2712.25	-33.9698
2714.25	-28.1449
2716.24	-23.5105
2718.23	-31.661
2720.23	-33.8374
2722.22	-32.7606
2724.2	-21.2003
2726.19	-20.2712
2728.18	-25.2379
2730.16	-24.7328
2732.14	-26.6711
2734.12	-31.935
2736.1	-20.5913
2738.07	-23.6323
2740.05	-24.8325
2742.02	-27.4534
2743.99	-28.3641
2745.96	-18.7482
2747.93	-18.846
2749.9	-19.3095
2751.86	-30.6653
2753.83	-27.3255
2755.79	-19.9473
2757.75	-23.4245
2759.71	-22.4879
2761.66	-18.423
2763.63	-5
2765.69	-18
2767.75	-15
2769.81	-19.5
2771.87	-23.5
2773.92	-11
2775.97	-10.5
2778.03	-23
2780.08	-28
2782.12	-16
2784.17	-20
2786.22	-6.5
2788.26	-24.5
2790.31	-23
2792.35	-22
2794.39	-24
2796.43	-20
2798.46	-12
2800.5	-25.5
2802.54	-28.5
2804.57	-20.5
2806.6	-17
2808.63	-11
2810.66	-7.5
2812.69	-23
2814.71	-18.5
2816.74	-25
2818.76	-27
2820.78	-10
2822.8	-6
2824.82	-15
2826.84	-23
2828.86	-24
2830.87	-7
2832.88	-7
2834.9	-17
2836.91	-18
2838.91	-16.5
2840.92	-25
2842.93	-13
2844.93	-2
2846.93	-13
2848.94	-15.5
2850.94	-9
2852.94	2.5
2854.93	9
2856.93	-1
2858.92	-6
2860.92	-17
2862.91	-4.5
2864.9	-6.5
2866.89	-18.5
2868.87	-8.5
2870.86	-18.5
2872.84	-23
2874.83	-1.5
2876.81	1.5
2878.79	-11
2880.77	-11.5
2882.75	-24.5
2884.72	-35
2886.7	-3
2888.67	-18
2890.64	-4.5
2892.61	-3.5
2894.58	-28
2896.55	-13.5
2898.51	-12
2900.48	-6
2902.44	-22.5
2904.4	-15
2906.36	-30
2908.32	-35
2910.28	-10.5
2912.23	-10
2914.19	-20
2916.14	-11
2918.09	-20.5
2920.04	-13
2921.99	-9
2923.94	-5
2925.88	-16
2927.83	-38
2929.77	-18
2931.71	0
2933.65	-0.5
2935.59	-30
2937.53	-24
2939.46	-12.5
2941.4	-47
2943.33	-15.5
2945.26	-17.5
2947.19	-18.5
2949.12	-33
2951.05	-40
2952.98	-21.5
2954.9	-13
2956.82	-28
2958.74	-26.5
2960.66	-31
2962.58	-37
2964.5	-24
2966.42	-23
2968.33	-34.5
2970.24	-48
2972.15	-23.5
2974.06	-40.5
2975.97	-16.5
2977.88	-31.5
2979.79	-26
2981.69	-35
2983.59	-30
2985.49	-23.5
2987.39	-27
2989.29	-27
2991.19	-49
2993.09	-46
2994.98	-44
2996.87	-27.5
2998.77	-29.5
3000.66	-34
3002.54	-35
3004.43	-23
3006.32	-36
3008.2	-13.5
3010.08	-13
3011.97	-44
3013.85	-37
3015.72	-41
3017.6	-31.5
3019.48	-26.5
3021.35	-28
3023.23	-37.5
3025.1	-34.5
3026.97	-39
3028.84	-34.5
3030.7	-16.5
3032.57	-34.5
3034.43	-19
3036.3	-37.5
3038.16	-29.5
3040.02	-31.5
3041.88	-22
3043.73	-32
3045.59	-31
3047.44	-37
3049.3	-33
3051.15	-24
3053	-40
3054.85	-47
3056.7	-48
3058.54	-36.5
3060.39	-37
3062.23	-21
3064.07	-18.5
3065.91	-43
3067.75	-48
3069.59	-42.5
3071.42	-30
3073.26	-26.5
3075.09	-32.5
3076.92	-49
3078.75	-30
3080.58	-37
3082.41	-25.5
3084.24	-32
3086.06	-34
3087.88	-30
3089.71	-34
3091.53	-31
3093.34	-38
3095.16	-30
3096.98	-38.5
3098.79	-33.5
3100.61	-36.5
3102.42	-40
3104.23	-30
3106.04	-26.5
3107.85	-29
3109.65	-46
3111.46	-36.5
3113.26	-41
3115.06	-23.5
3116.86	-49
3118.66	-36
3120.46	-40
3122.26	-30.5
3124.05	-22.5
3125.84	-26.5
3127.64	-32
3129.43	-44
3131.22	-29.5
3133	-28
3134.79	-24
3136.58	-26.5
3138.36	-39
3140.14	-41
3141.92	-39
3143.7	-35.5
3145.48	-25
3147.26	-39.5
3149.03	-36.5
3150.8	-41
3152.58	-47
3154.35	-26.5
3156.12	-36
3157.88	-40.5
3159.65	-27
3161.42	-48
3163.18	-41
3164.94	-30
3166.7	-26.5
3168.46	-38
3170.22	-30
3171.98	-56
3173.73	-33.5
3175.49	-19.5
3177.24	-41
3178.99	-33.5
3180.74	-38
3182.49	-38.5
3184.23	-20.5
3185.98	-39.5
3187.72	-27
3189.47	-43
3191.21	-37
3192.95	-30
3194.69	-35
3196.42	-28
3198.16	-31
3199.89	-40