File: raman_enhancement_factor/Renata_Raman_12_12_2025/Oil_BHT_1%_50Xlens_785_1200grating_25%_acc3_acq3s_AE50000_1.txt
100.582	490
104.437	442.5
108.287	404
112.136	408
115.981	402.5
119.823	397.5
123.663	374.5
127.499	382
131.333	351
135.163	326
138.992	363.5
142.816	314.5
146.637	293
150.457	268
154.273	281.5
158.086	252.5
161.896	246
165.703	220
169.507	227.5
173.309	181
177.107	190
180.902	185
184.695	204.5
188.485	197
192.272	174
196.055	172
199.837	175
203.615	180
207.39	178
211.162	171.5
214.932	172
218.697	160.5
222.462	158.5
226.222	175.5
229.98	157.5
233.734	132
237.486	151
241.235	133
244.981	188
248.725	234
252.465	199
256.203	145.5
259.937	158
263.669	142
267.398	131
271.123	139
274.846	129
278.566	103
282.283	127
285.998	100
289.71	110.5
293.418	106
297.123	102
300.826	89
304.526	97
308.223	93
311.917	98.5
315.609	100
319.297	95.5
322.982	99
326.665	81
330.345	78
334.022	77.5
337.696	83.5
341.367	79.5
345.036	96
348.701	57
352.363	86
356.023	75
359.68	72
363.334	74
366.986	65
370.633	75
374.279	76
377.921	61.5
381.562	52
385.198	44
388.832	69
392.463	68.5
396.092	63
399.717	58.5
403.34	57.5
406.96	52
410.576	47
414.191	66
417.802	52.5
421.41	41
425.016	45
428.619	54.5
432.218	62
435.815	52.5
439.41	48.5
443.001	53
446.59	36
450.175	36
453.758	53
457.339	51
460.916	47.5
464.49	35.5
468.062	31
471.631	42
475.196	32
478.76	42.5
482.32	40
485.877	33.5
489.432	24.5
492.984	39
496.533	44
500.079	38
503.622	33
507.163	16
510.701	43
514.236	45.5
517.768	33
521.297	28.5
524.823	24
528.348	36.5
531.868	19
535.386	21.5
538.902	38
542.414	27
545.924	14
549.431	33
552.935	7
556.436	22
559.935	7.5
563.431	2.5
566.924	30
570.414	26.5
573.901	37
577.385	19
580.867	16
584.347	7
587.822	37.5
591.296	33
594.767	27.5
598.234	15.5
601.699	12
605.161	25
608.621	31
612.078	30
615.532	14
618.983	17.5
622.431	3
625.877	14
629.32	23
632.76	22
636.197	9.5
639.632	2.5
643.064	10.5
646.493	4
649.919	20
653.342	0.5
656.764	8.5
660.181	9
663.596	18
667.009	25
670.419	24.5
673.826	5.5
677.23	13.5
680.631	21
684.03	16.5
687.426	9
690.819	22
694.21	21
697.597	-1
700.982	24
704.364	15
707.744	33.5
711.12	21
714.495	23.5
717.865	16
721.234	13
724.6	19
727.962	19
731.323	7
734.681	18.5
738.036	26
741.387	9
744.736	18
748.083	21
751.427	8
754.768	19
758.107	11
761.443	17
764.776	31.5
768.106	16.5
771.434	13.5
774.758	10
778.081	0
781.399	21.5
784.716	9
788.03	18
791.341	3
794.65	7.5
797.956	-1
801.259	22.5
804.559	29.5
807.857	14
811.152	15.5
814.444	15
817.733	22
821.02	21.5
824.305	47.5
827.586	27
830.865	36
834.141	53
837.414	42
840.685	57
843.952	56.5
847.218	45
850.48	60
853.74	45
856.997	43
860.252	53.5
863.504	49
866.753	46
869.999	50
873.243	55
876.484	56
879.722	40.5
882.958	37
886.191	44
889.421	38.5
892.649	38.5
895.874	44.5
899.096	46
902.315	37.5
905.533	39
908.747	37
911.958	40
915.167	49
918.374	33.5
921.577	28
924.778	21
927.977	38
931.173	27.5
934.365	21.5
937.556	30.5
940.743	25.5
943.928	39.5
947.11	44
950.29	27
953.467	30.5
956.641	32
959.813	22
962.982	11
966.149	29
969.312	36.5
972.473	15.5
975.631	16
978.787	25.5
981.94	37.5
985.091	23.5
988.239	19.5
991.384	11.5
994.527	12
997.666	14.5
1000.8	19.5
1003.94	29
1007.07	12
1010.2	8
1013.33	18
1016.45	13
1019.57	13.5
1022.69	25
1025.81	12
1028.92	20
1032.03	15
1035.14	19
1038.25	12
1041.35	28.5
1044.45	-11
1047.55	2
1050.64	19
1053.74	6
1056.83	26
1059.91	36.5
1063	34
1066.08	16
1069.16	50
1072.24	44
1075.31	35.5
1078.38	28
1081.45	29
1084.52	36
1087.58	42
1090.64	38.5
1093.7	20
1096.76	22.5
1099.81	18
1102.86	25
1105.91	41
1108.96	24
1112	22
1115.04	7.5
1118.08	24.5
1121.11	9
1124.15	-10
1127.18	-3.5
1130.2	-4.5
1133.23	-10.5
1136.25	1
1139.27	0
1142.29	10.5
1145.3	8
1148.32	-10.5
1151.33	9.05045
1154.33	-21.8962
1157.34	14.7108
1160.34	17.358
1163.34	12.0293
1166.33	-8.9928
1169.33	-7.88141
1172.32	15.0597
1175.31	8.52856
1178.3	11.958
1181.28	8.72647
1184.26	8.1832
1187.24	1.19007
1190.22	13.697
1193.19	17.5257
1196.16	2.33012
1199.13	5.58581
1202.09	1.2481
1205.06	13.2186
1208.02	14.8023
1210.98	6.75264
1213.93	17.2517
1216.89	21.2834
1219.84	15.5905
1222.78	13.6324
1225.73	15.4844
1228.67	22.0186
1231.61	30.9456
1234.55	37.645
1237.49	24.4273
1240.42	23.5481
1243.35	27.6918
1246.28	44.5911
1249.2	50.8901
1252.12	52.719
1254.74	60.5
1257.76	89
1260.79	82.5
1263.81	70.5
1266.82	81
1269.84	58
1272.85	63.5
1275.86	71
1278.87	63.5
1281.88	76
1284.88	43.5
1287.89	46
1290.89	44
1293.88	83
1296.88	97.5
1299.87	80
1302.86	60
1305.85	68
1308.84	55
1311.83	71.5
1314.81	50
1317.79	45.5
1320.77	23
1323.74	36.5
1326.72	37
1329.69	33
1332.66	36
1335.62	24
1338.59	19
1341.55	29.5
1344.51	51
1347.47	43.5
1350.43	32
1353.38	25.5
1356.33	27.5
1359.28	41.5
1362.23	39.5
1365.17	24
1368.12	27.5
1371.06	18.5
1373.99	22.5
1376.93	24.5
1379.86	38
1382.8	26
1385.73	18
1388.65	14
1391.58	10.5
1394.5	20
1397.42	31.5
1400.34	29
1403.26	11.5
1406.17	3
1409.08	28.5
1411.99	39
1414.9	28
1417.81	14
1420.71	22.5
1423.61	20
1426.51	45
1429.41	59
1432.3	74
1435.2	91.5
1438.09	69
1440.97	85.5
1443.86	76
1446.74	92.5
1449.63	62
1452.5	53
1455.38	52.5
1458.26	60
1461.13	52
1464	36.5
1466.87	23.5
1469.73	21.5
1472.6	17
1475.46	19
1478.32	24
1481.18	-11.5
1484.03	-3
1486.89	-5
1489.74	0.5
1492.59	4
1495.43	15
1498.28	-7.5
1501.12	-5.5
1503.96	6.5
1506.8	3
1509.64	21.5
1512.47	-4.5
1515.3	-7
1518.13	-16
1520.96	-3.5
1523.78	0
1526.6	9.5
1529.43	-3
1532.24	-14.5
1535.06	-18
1537.88	-5.5
1540.69	3
1543.5	3
1546.3	-3
1549.11	-25
1551.91	-15
1554.72	-13.5
1557.51	-2
1560.31	-3.5
1563.11	-21
1565.9	-16
1568.69	6.5
1571.48	9
1574.26	-1
1577.05	-21.5
1579.83	-21
1582.61	-14
1585.39	-5
1588.16	-7.5
1590.94	-7.5
1593.71	-16
1596.48	-18
1599.24	-23
1602.01	1
1604.77	3.5
1607.53	-15.5
1610.29	-24
1613.05	-17
1615.8	-11
1618.55	4
1621.3	1.5
1624.05	-15.5
1626.79	-14.5
1629.54	-21
1632.28	-5.5
1635.02	-6.5
1637.75	5.5
1640.49	-7.5
1643.22	-7
1645.95	9.5
1648.68	28.5
1651.41	67.5
1654.13	65
1656.85	64
1659.57	42
1662.29	23.5
1665.01	7
1667.72	9
1670.43	-5.5
1673.14	-6
1675.85	-11.5
1678.55	-20
1681.25	6.5
1683.95	2.5
1686.65	-21
1689.35	-27.5
1692.04	-21
1694.74	-14
1697.43	-14.5
1700.11	-10
1702.8	-29
1705.48	-23
1708.16	-19
1710.84	-5
1713.52	-9
1716.2	-23.5
1718.87	-25
1721.54	-18
1724.21	-25.5
1726.88	-5
1729.54	-7
1732.2	-12
1734.86	-10.5
1737.52	-10.5
1740.18	-3
1742.83	1
1745.48	0
1748.13	-15
1750.78	-15
1753.43	-8
1756.07	-8
1758.71	-18.5
1761.35	-8.5
1763.99	-35.5
1766.62	-27
1769.25	-18.5
1771.89	-5.5
1774.51	-7
1777.14	-20
1779.76	-29
1782.39	-40
1785.01	-18
1787.63	-15
1790.24	-10.5
1792.86	-23.5
1795.47	-28.5
1798.08	-18
1800.68	-30
1803.29	-12
1805.89	-21.5
1808.49	-26
1811.09	-27
1813.69	-26
1816.29	-19
1818.88	-17
1821.47	-21
1824.06	-26.5
1826.65	-42
1829.23	-18
1831.81	-22.5
1834.39	-20
1836.97	-19.5
1839.55	-49
1842.12	-25
1844.69	-31
1847.26	-5.5
1849.83	-6
1852.4	-23
1854.96	-28.5
1857.52	-34
1860.08	-20
1862.64	-11
1865.19	-34
1867.75	-35
1870.3	-25
1872.85	-17
1875.4	-10
1877.94	-14
1880.48	-32
1883.02	-33.5
1885.56	-24.5
1888.1	-10.5
1890.63	-17
1893.17	-23
1895.7	-41.5
1898.23	-21
1900.75	-19.5
1903.28	-5.5
1905.8	-14.5
1908.32	-27
1910.84	-30
1913.35	-29
1915.87	-13
1918.38	-18
1920.89	-24.5
1923.4	-33
1925.9	-44.5
1928.41	-27
1930.91	-1
1933.41	-11.5
1935.9	-24.5
1938.4	-32.5
1940.89	-32.5
1943.38	-14
1945.87	-20.5
1948.36	-19
1950.84	-37.5
1953.33	-35
1955.81	-22.5
1958.29	-27.5
1960.76	-2.5
1963.24	-13.5
1965.71	-14
1968.18	-33
1970.65	-17
1973.12	-6.5
1975.58	-12
1978.04	-40
1980.5	-43.5
1982.96	-23.5
1985.42	-29
1987.87	-21
1990.32	-12
1992.78	-29.5
1995.22	-35
1997.67	-25.9238
2000.11	-19.219
2002.56	-14.1467
2004.99	-30.4324
2007.43	-42.9987
2009.87	-24.3995
2012.3	-22.4756
2014.73	-3.89029
2017.16	-22.2699
2019.59	-28.4693
2022.02	-36.9551
2024.44	-24.6392
2026.86	-18.9542
2029.28	-16.0956
2031.7	-34.1123
2034.11	-29.5585
2036.53	-26.5494
2038.94	-18.2357
2041.35	-27.7097
2043.76	-14.3208
2046.16	-16.7604
2048.56	-19.8452
2050.97	-26.2547
2053.36	-24.5777
2055.76	-17.0668
2058.16	-15.7698
2060.55	-14.6326
2062.94	-27.0475
2065.33	-42.1287
2067.72	-12.9033
2070.1	-13.2098
2072.49	-5.22149
2074.87	-31.9415
2077.25	-20.2071
2079.62	-9.80615
2081.38	-13
2083.86	-29
2086.34	-34.5
2088.81	-6.5
2091.29	-11
2093.76	-1
2096.23	-40
2098.7	-23.5
2101.17	-20
2103.64	-19
2106.1	-6
2108.56	-7.5
2111.03	-17
2113.48	-31.5
2115.94	-23
2118.4	-10
2120.85	-4
2123.3	-0.5
2125.76	-22.5
2128.2	-46
2130.65	-11.5
2133.1	-5
2135.54	-5.5
2137.98	-30
2140.42	-30
2142.86	-17
2145.3	-13.5
2147.73	-4
2150.16	-27
2152.6	-18
2155.02	-23
2157.45	-23
2159.88	-25
2162.3	-11.5
2164.73	-19
2167.15	-42
2169.57	-38
2171.98	-5.5
2174.4	-27
2176.81	-12
2179.22	-18.5
2181.63	-21.5
2184.04	-20
2186.45	-28
2188.86	-6
2191.26	-36
2193.66	-29.5
2196.06	-37
2198.46	-19
2200.85	-12
2203.25	-21
2205.64	-17.5
2208.03	-32
2210.42	-29.5
2212.81	-25
2215.2	-19.5
2217.58	-18.5
2219.96	-36.5
2222.34	-61
2224.72	-25
2227.1	-17
2229.47	-23
2231.85	-19
2234.22	-38.5
2236.59	-19.5
2238.96	-23.5
2241.33	-19.5
2243.69	-19
2246.05	-27.5
2248.41	-38.5
2250.77	-39
2253.13	-43
2255.49	-12
2257.84	-24.5
2260.2	-27
2262.55	-46
2264.9	-40
2267.24	-26
2269.59	-27.5
2271.93	-26
2274.28	-39
2276.62	-27.5
2278.96	-34
2281.29	-17.5
2283.63	-41
2285.96	-30
2288.29	-28
2290.62	-45
2292.95	-26.5
2295.28	-31
2297.6	-29
2299.93	-36.5
2302.25	-35.5
2304.57	-39
2306.89	-27
2309.2	-14.5
2311.52	-34
2313.83	-39
2316.14	-49
2318.45	-50
2320.76	-31
2323.06	-24
2325.37	-47.5
2327.67	-40
2329.97	-32
2332.27	-26.5
2334.57	-21
2336.86	-30
2339.16	-42.5
2341.45	-44
2343.74	-38
2346.03	-23.5
2348.31	-23
2350.6	-27.5
2352.88	-34
2355.17	-37.5
2357.45	-49
2359.72	-17
2362	-19.5
2364.28	-32.5
2366.55	-32
2368.82	-34
2371.09	-31.5
2373.36	-22.5
2375.62	-36.5
2377.89	-30
2380.15	-48
2382.41	-30.5
2384.67	-23
2386.93	-15.5
2389.18	-26
2391.44	-38.5
2393.69	-51
2395.94	-43
2398.19	-32
2400.44	-12
2402.68	-29
2404.93	-23
2407.17	-39
2409.41	-32
2411.65	-16
2413.89	-33
2416.12	-32
2418.35	-30
2420.59	-32
2422.82	-24
2425.04	-25
2427.27	-22
2429.5	-39
2431.72	-35.5
2433.94	-28
2436.16	-22
2438.38	-26.5
2440.59	-30
2442.81	-48
2445.02	-50
2447.23	-31
2449.44	-22
2451.65	-19
2453.86	-30.5
2456.06	-46
2458.26	-42
2460.46	-12.5
2462.66	-23.5
2464.86	-18
2467.06	-31.5
2469.25	-42.5
2471.44	-38
2473.63	-21
2475.82	-25.5
2478.01	-37
2480.19	-36.5
2482.38	-38
2484.56	-38
2486.74	-29
2488.92	-25
2491.1	-43.5
2493.27	-34
2495.45	-22.5
2497.62	-28
2499.79	-13
2501.96	-32.5
2504.12	-35
2506.29	-27
2508.45	-41
2510.61	-24
2512.77	-23
2514.93	-36.5
2517.09	-43.5
2519.24	-34
2521.4	-25.5
2523.55	-20.5
2525.7	-15.5
2527.84	-32
2529.99	-34.5
2532.14	-35.5
2534.28	-43
2536.42	-29
2538.56	-20.5
2540.7	-37
2542.83	-42
2544.97	-21
2547.1	-26.5
2549.23	-21.5
2551.36	-38.5
2553.49	-33
2555.61	-22.5
2557.74	-24
2559.86	-36
2561.98	-24
2564.1	-43.5
2566.22	-37
2568.33	-54
2570.45	-17
2572.56	-21
2574.67	-28.5
2576.78	-37
2578.89	-37
2580.99	-24.5
2583.1	-21.5
2585.2	-25.5
2587.3	-37.5
2589.4	-43
2591.5	-36.5
2593.59	-20.5
2595.68	-25
2597.78	-32.5
2599.87	-33.5
2601.96	-37
2604.04	-32.5
2606.13	-26
2608.21	-20
2610.29	-30
2612.37	-35
2614.45	-49
2616.53	-32
2618.6	-23
2620.68	-18
2622.75	-24.5
2624.82	-44.5
2626.89	-32.5
2628.96	-30
2631.02	-21.5
2633.08	-25
2635.15	-53
2637.21	-43
2639.26	-38
2641.32	-45
2643.38	-27.5
2645.43	-27.5
2647.48	-37
2649.53	-48
2651.58	-33
2653.63	-13.5
2655.67	-32.5
2657.71	-32
2659.76	-43
2661.8	-44
2663.83	-24
2665.87	-7
2667.91	-35.5
2669.94	-31.5
2671.97	-41
2674	-34.5
2676.03	-21
2678.06	-21
2680.08	-18
2682.1	-36.5
2684.12	-36
2686.14	-37
2688.16	-18
2690.18	-6
2692.19	-25.5
2694.21	-37.5764
2696.22	-28.3985
2698.23	-31.3336
2700.24	-18.5222
2702.24	-24.2541
2704.25	-33.3379
2706.25	-30.2195
2708.25	-38.3769
2710.25	-15.7235
2712.25	-14.3974
2714.25	-32.1516
2716.24	-31.8763
2718.23	-42.5543
2720.23	-27.6405
2722.22	-14.6282
2724.2	-19.0743
2726.19	-31.3599
2728.18	-25.2466
2730.16	-25.3889
2732.14	-20.7828
2734.12	-29.3594
2736.1	-26.8616
2738.07	-25.3676
2740.05	-25.2621
2742.02	-24.8996
2743.99	-30.5416
2745.96	-17.7977
2747.93	-14.8797
2749.9	-22.6827
2751.86	-16.9706
2753.83	-20.8612
2755.79	-18.0621
2757.75	-14.5591
2759.71	-19.1172
2761.66	-20.239
2763.63	-22.5
2765.69	-8.5
2767.75	-16
2769.81	-16
2771.87	-31.5
2773.92	-26
2775.97	-24
2778.03	-16
2780.08	-15.5
2782.12	-7
2784.17	-24.5
2786.22	-7
2788.26	-18
2790.31	-23
2792.35	-5.5
2794.39	-11.5
2796.43	-17
2798.46	-17
2800.5	-24
2802.54	-5.5
2804.57	-13.5
2806.6	-23
2808.63	-32
2810.66	3
2812.69	-8.5
2814.71	-8
2816.74	-22
2818.76	-33
2820.78	-20
2822.8	-24
2824.82	-15
2826.84	-18.5
2828.86	-31
2830.87	-36
2832.88	-22
2834.9	-13.5
2836.91	-17.5
2838.91	-19.5
2840.92	-15.5
2842.93	-25
2844.93	-17
2846.93	-29
2848.94	-1.5
2850.94	-8.5
2852.94	-24.5
2854.93	-7
2856.93	-12
2858.92	0.5
2860.92	-16.5
2862.91	-25.5
2864.9	-13
2866.89	-14.5
2868.87	-4
2870.86	-17
2872.84	-23
2874.83	-22
2876.81	-8.5
2878.79	-17.5
2880.77	-13.5
2882.75	-10
2884.72	-15
2886.7	-22
2888.67	-14
2890.64	-11
2892.61	-2.5
2894.58	-20
2896.55	-21.5
2898.51	-23
2900.48	-36
2902.44	-13.5
2904.4	-22
2906.36	-33
2908.32	-19
2910.28	-15
2912.23	-26
2914.19	-11
2916.14	-6.5
2918.09	-14.5
2920.04	-31.5
2921.99	-29
2923.94	-15
2925.88	-11
2927.83	-25.5
2929.77	-31.5
2931.71	-34
2933.65	-39
2935.59	-17
2937.53	-23.5
2939.46	-14
2941.4	-24.5
2943.33	-27
2945.26	-37
2947.19	-26
2949.12	-23.5
2951.05	-38.5
2952.98	-31
2954.9	-50
2956.82	-20
2958.74	-26
2960.66	-25.5
2962.58	-41
2964.5	-30.5
2966.42	-32
2968.33	-36
2970.24	-12
2972.15	-24.5
2974.06	-30
2975.97	-54
2977.88	-32
2979.79	-25
2981.69	-27
2983.59	-31
2985.49	-40
2987.39	-25
2989.29	-39
2991.19	-21
2993.09	-20
2994.98	-31
2996.87	-64
2998.77	-33
3000.66	-18
3002.54	-20
3004.43	-24.5
3006.32	-33.5
3008.2	-32
3010.08	-44
3011.97	-20.5
3013.85	-22.5
3015.72	-27.5
3017.6	-53
3019.48	-46
3021.35	-47
3023.23	-21.5
3025.1	-33
3026.97	-39.5
3028.84	-50
3030.7	-51
3032.57	-24
3034.43	-20
3036.3	-32
3038.16	-35.5
3040.02	-33
3041.88	-32.5
3043.73	-26
3045.59	-30
3047.44	-35
3049.3	-38.5
3051.15	-34.5
3053	-29
3054.85	-26.5
3056.7	-21.5
3058.54	-41.5
3060.39	-30.5
3062.23	-46
3064.07	-34
3065.91	-25
3067.75	-30.5
3069.59	-37
3071.42	-42
3073.26	-33.5
3075.09	-34
3076.92	-16.5
3078.75	-52
3080.58	-55
3082.41	-49
3084.24	-34
3086.06	-28
3087.88	-29
3089.71	-34
3091.53	-33
3093.34	-50
3095.16	-27
3096.98	-20.5
3098.79	-40
3100.61	-45
3102.42	-33
3104.23	-38
3106.04	-20
3107.85	-25.5
3109.65	-36.5
3111.46	-44
3113.26	-44.5
3115.06	-42
3116.86	-20
3118.66	-32
3120.46	-43.5
3122.26	-53.5
3124.05	-33
3125.84	-25
3127.64	-19
3129.43	-39.5
3131.22	-42
3133	-36
3134.79	-50
3136.58	-24.5
3138.36	-32
3140.14	-22.5
3141.92	-39.5
3143.7	-44
3145.48	-32
3147.26	-17
3149.03	-33
3150.8	-38.5
3152.58	-33.5
3154.35	-36.5
3156.12	-23
3157.88	-27.5
3159.65	-38.5
3161.42	-43.5
3163.18	-35
3164.94	-34
3166.7	-30
3168.46	-25.5
3170.22	-26
3171.98	-40.5
3173.73	-44
3175.49	-17
3177.24	-26
3178.99	-32
3180.74	-40.5
3182.49	-33
3184.23	-32
3185.98	-31
3187.72	-28
3189.47	-27
3191.21	-48.5
3192.95	-41
3194.69	-26
3196.42	-19.5
3198.16	-26
3199.89	-33.5