File: raman_enhancement_factor/Renata_Raman_12_12_2025/Oil_BHT_0_08Au_sub_Aged_50Xlens_785_1200grating_25%_acc3_acq3s_AE50000.txt
100.582	568
104.437	517.5
108.287	490
112.136	446
115.981	468.5
119.823	413
123.663	409.5
127.499	418.5
131.333	398.5
135.163	389.5
138.992	356
142.816	323
146.637	307
150.457	304.5
154.273	300
158.086	274.5
161.896	247
165.703	228
169.507	238
173.309	247.5
177.107	232.5
180.902	220.5
184.695	211
188.485	202
192.272	182
196.055	194
199.837	176
203.615	187.5
207.39	176.5
211.162	189
214.932	185.5
218.697	167.5
222.462	167
226.222	166
229.98	164
233.734	147.5
237.486	162
241.235	168
244.981	225.5
248.725	279
252.465	278
256.203	170
259.937	214.5
263.669	160
267.398	143
271.123	149.5
274.846	132.5
278.566	146
282.283	139
285.998	107
289.71	116.5
293.418	106.5
297.123	124.5
300.826	127
304.526	116.5
308.223	94
311.917	93
315.609	95
319.297	101
322.982	93
326.665	102
330.345	84
334.022	73.5
337.696	77
341.367	91.5
345.036	84.5
348.701	64
352.363	75.5
356.023	68.5
359.68	70
363.334	79
366.986	93
370.633	72
374.279	74.5
377.921	67
381.562	66
385.198	72.5
388.832	68
392.463	62
396.092	67.5
399.717	51.5
403.34	67
406.96	71.5
410.576	64
414.191	48.5
417.802	47
421.41	51.5
425.016	51.5
428.619	53
432.218	61
435.815	48
439.41	45.5
443.001	54.5
446.59	47
450.175	41
453.758	37.5
457.339	32
460.916	31
464.49	34.5
468.062	57.5
471.631	41.5
475.196	27
478.76	35.5
482.32	36
485.877	50
489.432	40.5
492.984	13
496.533	31.5
500.079	17.5
503.622	33
507.163	32
510.701	39
514.236	36
517.768	9
521.297	5
524.823	26
528.348	27.5
531.868	26
535.386	12
538.902	19
542.414	-2
545.924	42.5
549.431	30
552.935	-7
556.436	18
559.935	8
563.431	16.5
566.924	17.5
570.414	26
573.901	14
577.385	7
580.867	11.5
584.347	24
587.822	24.5
591.296	15
594.767	22
598.234	12.5
601.699	22
605.161	30.5
608.621	11
612.078	24.5
615.532	9
618.983	-4.5
622.431	15
625.877	14
629.32	18.5
632.76	-5
636.197	2
639.632	1
643.064	11
646.493	14.5
649.919	-10
653.342	7
656.764	1.5
660.181	11
663.596	19.5
667.009	7
670.419	-1
673.826	-9
677.23	-9
680.631	9
684.03	3
687.426	-15
690.819	-13
694.21	1.5
697.597	15.5
700.982	11.5
704.364	22
707.744	24
711.12	0
714.495	1
717.865	28.5
721.234	38
724.6	33.5
727.962	15
731.323	2
734.681	21.5
738.036	30
741.387	8.5
744.736	16.5
748.083	7.5
751.427	6.5
754.768	5
758.107	21.5
761.443	19
764.776	-8
768.106	24
771.434	12
774.758	11
778.081	17
781.399	20
784.716	9
788.03	-18
791.341	3
794.65	3.5
797.956	17
801.259	11
804.559	1
807.857	9.5
811.152	17
814.444	28.5
817.733	40
821.02	34
824.305	37
827.586	31
830.865	46
834.141	56
837.414	64
840.685	58
843.952	62.5
847.218	56.5
850.48	42
853.74	53.5
856.997	47
860.252	38
863.504	45
866.753	69.5
869.999	75
873.243	53
876.484	58
879.722	45
882.958	42.5
886.191	51
889.421	66
892.649	40
895.874	47
899.096	29
902.315	32.5
905.533	48
908.747	34
911.958	48
915.167	26.5
918.374	36.5
921.577	31
924.778	43
927.977	28
931.173	30
934.365	29.5
937.556	23
940.743	45
943.928	47
947.11	24
950.29	34
953.467	31
956.641	31
959.813	44
962.982	54
966.149	34.5
969.312	28
972.473	30.5
975.631	15
978.787	21
981.94	26.5
985.091	22
988.239	19
991.384	11
994.527	19
997.666	28.5
1000.8	16
1003.94	20
1007.07	11
1010.2	15
1013.33	19.5
1016.45	23.5
1019.57	19.5
1022.69	33.5
1025.81	17.5
1028.92	23
1032.03	21.5
1035.14	8
1038.25	38
1041.35	28.5
1044.45	19
1047.55	8
1050.64	13
1053.74	20
1056.83	22
1059.91	37.5
1063	40.5
1066.08	40.5
1069.16	52
1072.24	50
1075.31	44
1078.38	33
1081.45	37
1084.52	44.5
1087.58	54
1090.64	45
1093.7	23
1096.76	24.5
1099.81	28.5
1102.86	13
1105.91	30
1108.96	6
1112	4.5
1115.04	12
1118.08	19
1121.11	13.5
1124.15	-3
1127.18	13
1130.2	-4
1133.23	0
1136.25	2
1139.27	8
1142.29	5.5
1145.3	-2.5
1148.32	-5
1151.33	-20.327
1154.33	2.29094
1157.34	8.54227
1160.34	4.69709
1163.34	-10.3098
1166.33	-6.34985
1169.33	0.623469
1172.32	3.20802
1175.31	2.11469
1178.3	-0.846757
1181.28	-11.2757
1184.26	-2.35953
1187.24	6.60788
1190.22	-4.85257
1193.19	-3.50388
1196.16	-3.60296
1199.13	-9.79333
1202.09	11.1713
1205.06	2.39664
1208.02	5.10856
1210.98	7.32415
1213.93	3.16635
1216.89	10.7662
1219.84	4.64382
1222.78	8.52001
1225.73	7.52843
1228.67	-1.2034
1231.61	17.1686
1234.55	25.1524
1237.49	24.3216
1240.42	19.4732
1243.35	30.2706
1246.28	34.4625
1249.2	42.7179
1252.12	46.3833
1254.74	58.5
1257.76	74
1260.79	65
1263.81	74
1266.82	68
1269.84	73.5
1272.85	65.5
1275.86	64
1278.87	50.5
1281.88	55
1284.88	34.5
1287.89	40
1290.89	50.5
1293.88	84
1296.88	80
1299.87	82
1302.86	89
1305.85	48
1308.84	51.5
1311.83	48
1314.81	40
1317.79	18.5
1320.77	13
1323.74	22
1326.72	29.5
1329.69	33
1332.66	18.5
1335.62	13
1338.59	1.5
1341.55	10.5
1344.51	17
1347.47	17.5
1350.43	-2.5
1353.38	14.5
1356.33	-10
1359.28	9.5
1362.23	8
1365.17	3
1368.12	7
1371.06	-11
1373.99	7.5
1376.93	8
1379.86	-4
1382.8	-23
1385.73	-14
1388.65	-3
1391.58	5.5
1394.5	-1
1397.42	-11
1400.34	2
1403.26	-16.5
1406.17	-1.5
1409.08	-1.5
1411.99	15
1414.9	14.5
1417.81	-2
1420.71	-6
1423.61	12
1426.51	27.5
1429.41	50
1432.3	62
1435.2	91
1438.09	92
1440.97	87
1443.86	87
1446.74	64.5
1449.63	38
1452.5	39.5
1455.38	44.5
1458.26	38
1461.13	30
1464	35
1466.87	-2
1469.73	4
1472.6	9
1475.46	-9.5
1478.32	-7.5
1481.18	-30
1484.03	-14.5
1486.89	-8.5
1489.74	-23.5
1492.59	5.5
1495.43	-20
1498.28	-33
1501.12	-31.5
1503.96	-18
1506.8	-22
1509.64	1.5
1512.47	-23
1515.3	-30
1518.13	-16.5
1520.96	-32
1523.78	-22.5
1526.6	-8
1529.43	-19
1532.24	-23
1535.06	-41
1537.88	-21
1540.69	-19.5
1543.5	-25
1546.3	-33
1549.11	-25.5
1551.91	-25
1554.72	-16.5
1557.51	-14
1560.31	-32
1563.11	-35.5
1565.9	-33
1568.69	-21.5
1571.48	-26.5
1574.26	-16.5
1577.05	-26
1579.83	-31
1582.61	-18.5
1585.39	-18
1588.16	-23
1590.94	-39
1593.71	-22
1596.48	-28.5
1599.24	-35.5
1602.01	-34
1604.77	-14
1607.53	-20
1610.29	-21
1613.05	-28
1615.8	-25
1618.55	-16
1621.3	-39
1624.05	-17
1626.79	-22.5
1629.54	-24.5
1632.28	-11
1635.02	-14
1637.75	-10
1640.49	-9.5
1643.22	1
1645.95	21
1648.68	37.5
1651.41	38
1654.13	63
1656.85	74
1659.57	45
1662.29	31.5
1665.01	14
1667.72	-11
1670.43	-16
1673.14	-19
1675.85	-18
1678.55	-16
1681.25	-21
1683.95	-44
1686.65	-32
1689.35	-11.5
1692.04	-26
1694.74	-18
1697.43	-30
1700.11	-24
1702.8	-33.5
1705.48	-37
1708.16	-26
1710.84	-43
1713.52	-39
1716.2	-38.5
1718.87	-35
1721.54	-32
1724.21	-28
1726.88	-17.5
1729.54	-18
1732.2	-38
1734.86	-25
1737.52	-19
1740.18	-27
1742.83	-12
1745.48	-27
1748.13	-8.5
1750.78	-26.5
1753.43	-26.25
1756.07	-27
1758.71	-20
1761.35	-34
1763.99	-27.5
1766.62	-15.5
1769.25	-16.5
1771.89	-23
1774.51	-33
1777.14	-38.5
1779.76	-47
1782.39	-26
1785.01	-35
1787.63	-33
1790.24	-28
1792.86	-19
1795.47	-31.5
1798.08	-28
1800.68	-19
1803.29	-21.5
1805.89	-35
1808.49	-44
1811.09	-30
1813.69	-15
1816.29	-23
1818.88	-46
1821.47	-29
1824.06	-19
1826.65	-27
1829.23	-21.5
1831.81	-22
1834.39	-42
1836.97	-44
1839.55	-41
1842.12	-37
1844.69	-36.5
1847.26	-23
1849.83	-43
1852.4	-24.5
1854.96	-27
1857.52	-17
1860.08	-17
1862.64	-35
1865.19	-25.5
1867.75	-27
1870.3	-47
1872.85	-27
1875.4	-25
1877.94	-49
1880.48	-33
1883.02	-35.5
1885.56	-24
1888.1	-22
1890.63	-23
1893.17	-43
1895.7	-37.5
1898.23	-28
1900.75	-16.5
1903.28	-30
1905.8	-24
1908.32	-28
1910.84	-39.5
1913.35	-16.5
1915.87	-23.5
1918.38	-20
1920.89	-33
1923.4	-27
1925.9	-35.5
1928.41	-27
1930.91	-11.5
1933.41	-30
1935.9	-48
1938.4	-38
1940.89	-26
1943.38	-31
1945.87	-11.5
1948.36	-18
1950.84	-31
1953.33	-37.5
1955.81	-31.5
1958.29	-27
1960.76	-22
1963.24	-19
1965.71	-34
1968.18	-43
1970.65	-26
1973.12	-16.5
1975.58	-23.5
1978.04	-41
1980.5	-24
1982.96	-30
1985.42	-33
1987.87	-28
1990.32	-26.5
1992.78	-34
1995.22	-29
1997.67	-51.3048
2000.11	-24.0911
2002.56	-35.5051
2004.99	-33.976
2007.43	-39.7393
2009.87	-31.771
2012.3	-23.8566
2014.73	-13.3
2017.16	-31.3288
2019.59	-31.4334
2022.02	-33.6906
2024.44	-24.7897
2026.86	-18.4119
2029.28	-24.9016
2031.7	-39.1852
2034.11	-22.5503
2036.53	-30.2031
2038.94	-30.2667
2041.35	-17.4703
2043.76	-25.639
2046.16	-34.8607
2048.56	-33.0155
2050.97	-37.2365
2053.36	-15.7652
2055.76	-17.4156
2058.16	-28.6416
2060.55	-28.6569
2062.94	-23.8714
2065.33	-24.084
2067.72	-19.33
2070.1	-29.8611
2072.49	-21.1965
2074.87	-27.3643
2077.25	-12.7635
2079.62	-7.10018
2081.38	-38
2083.86	-26
2086.34	-17
2088.81	-3
2091.29	-26
2093.76	-13
2096.23	-21
2098.7	-19
2101.17	-14
2103.64	-21
2106.1	-18
2108.56	-19
2111.03	-34
2113.48	-26
2115.94	-10
2118.4	-27
2120.85	-19.5
2123.3	-15
2125.76	-15
2128.2	-15
2130.65	-12
2133.1	-11.5
2135.54	-29
2137.98	-37
2140.42	-22
2142.86	-3
2145.3	-26.5
2147.73	-29
2150.16	-19.5
2152.6	-21
2155.02	-28
2157.45	-14
2159.88	-15.5
2162.3	-30.5
2164.73	-36
2167.15	-21
2169.57	-8
2171.98	-28.5
2174.4	-36.5
2176.81	-44
2179.22	-21
2181.63	-22
2184.04	-2
2186.45	-23
2188.86	-30
2191.26	-28
2193.66	-37
2196.06	-20
2198.46	-30.5
2200.85	-24.5
2203.25	-35
2205.64	-24.5
2208.03	-44
2210.42	-30
2212.81	-27
2215.2	-45.5
2217.58	-34
2219.96	-28
2222.34	-20
2224.72	-22.5
2227.1	-35
2229.47	-26.5
2231.85	-26.5
2234.22	-43
2236.59	-23
2238.96	-28.5
2241.33	-32
2243.69	-38
2246.05	-35
2248.41	-30
2250.77	-31.5
2253.13	-21
2255.49	-35
2257.84	-30
2260.2	-45
2262.55	-31.5
2264.9	-16.5
2267.24	-21.5
2269.59	-28.5
2271.93	-29.5
2274.28	-36
2276.62	-25
2278.96	-28.5
2281.29	-36.5
2283.63	-31.5
2285.96	-21
2288.29	-36
2290.62	-28
2292.95	-34
2295.28	-30
2297.6	-40
2299.93	-35
2302.25	-47
2304.57	-27.5
2306.89	-34.5
2309.2	-31
2311.52	-37
2313.83	-22
2316.14	-36
2318.45	-22.5
2320.76	-27
2323.06	-34.5
2325.37	-24
2327.67	-30.5
2329.97	-22.5
2332.27	-31.5
2334.57	-37.5
2336.86	-38.5
2339.16	-26
2341.45	-41
2343.74	-35
2346.03	-32
2348.31	-40
2350.6	-29.5
2352.88	-36
2355.17	-50
2357.45	-30.5
2359.72	-26
2362	-32
2364.28	-37
2366.55	-48
2368.82	-24
2371.09	-31
2373.36	-37
2375.62	-35
2377.89	-27.5
2380.15	-43
2382.41	-30
2384.67	-22
2386.93	-34
2389.18	-28
2391.44	-41.5
2393.69	-30.5
2395.94	-29
2398.19	-30.5
2400.44	-29.5
2402.68	-44.5
2404.93	-38
2407.17	-33
2409.41	-14.5
2411.65	-39.5
2413.89	-37.5
2416.12	-42
2418.35	-26
2420.59	-39
2422.82	-32
2425.04	-41
2427.27	-42.5
2429.5	-29.5
2431.72	-38
2433.94	-20.5
2436.16	-38
2438.38	-31
2440.59	-27.5
2442.81	-28
2445.02	-45
2447.23	-40
2449.44	-33.5
2451.65	-48.5
2453.86	-47
2456.06	-34
2458.26	-28
2460.46	-36
2462.66	-32
2464.86	-37.5
2467.06	-36
2469.25	-43
2471.44	-33.5
2473.63	-20
2475.82	-41
2478.01	-47.5
2480.19	-37
2482.38	-34
2484.56	-37
2486.74	-33
2488.92	-49
2491.1	-26
2493.27	-28.25
2495.45	-24.5
2497.62	-30
2499.79	-43.5
2501.96	-36.5
2504.12	-26.5
2506.29	-28
2508.45	-40
2510.61	-32.5
2512.77	-42
2514.93	-39
2517.09	-45
2519.24	-37
2521.4	-29.5
2523.55	-44
2525.7	-35.5
2527.84	-30.5
2529.99	-30
2532.14	-17
2534.28	-36.5
2536.42	-28
2538.56	-39.5
2540.7	-41
2542.83	-22
2544.97	-28
2547.1	-27
2549.23	-42
2551.36	-31
2553.49	-24
2555.61	-27
2557.74	-32.5
2559.86	-45
2561.98	-38.5
2564.1	-24
2566.22	-29
2568.33	-33
2570.45	-33
2572.56	-39
2574.67	-46.5
2576.78	-39
2578.89	-34
2580.99	-28.5
2583.1	-33
2585.2	-45.5
2587.3	-33.5
2589.4	-44
2591.5	-27
2593.59	-32
2595.68	-33
2597.78	-34.5
2599.87	-37.5
2601.96	-42
2604.04	-23
2606.13	-28.5
2608.21	-48
2610.29	-39
2612.37	-40
2614.45	-12
2616.53	-38.5
2618.6	-28.5
2620.68	-37.5
2622.75	-41
2624.82	-44
2626.89	-39
2628.96	-41.5
2631.02	-26.5
2633.08	-38
2635.15	-27.5
2637.21	-34
2639.26	-27.5
2641.32	-27.5
2643.38	-27
2645.43	-31
2647.48	-40
2649.53	-38
2651.58	-24.5
2653.63	-16.5
2655.67	-26
2657.71	-32
2659.76	-36
2661.8	-27.5
2663.83	-28.5
2665.87	-35.5
2667.91	-26
2669.94	-38
2671.97	-24.5
2674	-19
2676.03	-24
2678.06	-39
2680.08	-33.5
2682.1	-43
2684.12	-30
2686.14	-25.5
2688.16	-18
2690.18	-36
2692.19	-28
2694.21	-45.9205
2696.22	-30.5976
2698.23	-25.706
2700.24	-32.6981
2702.24	-35.518
2704.25	-44.4606
2706.25	-30.256
2708.25	-28.0925
2710.25	-24.9213
2712.25	-25.034
2714.25	-33.7517
2716.24	-34.3738
2718.23	-34.2316
2720.23	-31.0749
2722.22	-20.819
2724.2	-28.5356
2726.19	-25.7867
2728.18	-26.6709
2730.16	-26.1307
2732.14	-31.2169
2734.12	-24.1291
2736.1	-28.3469
2738.07	-22.3453
2740.05	-27.7553
2742.02	-25.7383
2743.99	-19.824
2745.96	-31.7176
2747.93	-27.3614
2749.9	-24.0335
2751.86	-23.4255
2753.83	-19.6909
2755.79	-18.8679
2757.75	-16.9788
2759.71	-25.7486
2761.66	-25.869
2763.63	-23
2765.69	-26
2767.75	-22
2769.81	-11
2771.87	-34
2773.92	-23.5
2775.97	-14
2778.03	-24
2780.08	-16
2782.12	0
2784.17	-24
2786.22	-23
2788.26	-32
2790.31	-31
2792.35	-13.5
2794.39	-17.5
2796.43	-17.5
2798.46	-13
2800.5	-17
2802.54	-15
2804.57	-10
2806.6	-19.5
2808.63	-30
2810.66	-25.5
2812.69	-24
2814.71	-12
2816.74	-17.5
2818.76	-21
2820.78	-20
2822.8	-15
2824.82	-36
2826.84	-25
2828.86	-12
2830.87	-20
2832.88	-19
2834.9	-17
2836.91	-33
2838.91	-10
2840.92	-24.5
2842.93	-24.5
2844.93	-9.5
2846.93	-3.5
2848.94	-11
2850.94	-7.5
2852.94	-9
2854.93	4
2856.93	-10
2858.92	-19
2860.92	-15
2862.91	-14.5
2864.9	-18
2866.89	6.5
2868.87	-8
2870.86	-19
2872.84	-29
2874.83	-15
2876.81	-16
2878.79	-2
2880.77	-11.5
2882.75	-11
2884.72	-25.5
2886.7	-27.5
2888.67	-27
2890.64	-21.5
2892.61	0.5
2894.58	-22
2896.55	-17.5
2898.51	-28
2900.48	-24
2902.44	-24
2904.4	-14
2906.36	-7
2908.32	-20
2910.28	-14
2912.23	-25.5
2914.19	-5
2916.14	-22
2918.09	-24
2920.04	-34
2921.99	-24.5
2923.94	-23
2925.88	-7.5
2927.83	-24
2929.77	-11
2931.71	-23
2933.65	-11.5
2935.59	-19
2937.53	-20
2939.46	-22
2941.4	-19.5
2943.33	-21.5
2945.26	-33
2947.19	-14
2949.12	-48
2951.05	-35
2952.98	-28
2954.9	-30.5
2956.82	-20
2958.74	-33
2960.66	-30
2962.58	-24
2964.5	-37.5
2966.42	-39
2968.33	-30.5
2970.24	-29
2972.15	-36.5
2974.06	-33.5
2975.97	-43.5
2977.88	-22.5
2979.79	-32
2981.69	-22
2983.59	-36
2985.49	-35.5
2987.39	-41.5
2989.29	-30.5
2991.19	-53
2993.09	-31
2994.98	-33
2996.87	-37
2998.77	-31.5
3000.66	-52
3002.54	-34
3004.43	-28
3006.32	-28
3008.2	-29
3010.08	-25.5
3011.97	-42
3013.85	-47
3015.72	-40
3017.6	-34
3019.48	-36
3021.35	-24.5
3023.23	-33
3025.1	-54
3026.97	-38
3028.84	-38.5
3030.7	-26
3032.57	-35.5
3034.43	-45
3036.3	-30.5
3038.16	-44
3040.02	-34.5
3041.88	-25
3043.73	-21.5
3045.59	-37
3047.44	-36
3049.3	-34.5
3051.15	-33
3053	-32.5
3054.85	-29
3056.7	-27
3058.54	-32
3060.39	-37.5
3062.23	-35
3064.07	-36
3065.91	-22
3067.75	-32
3069.59	-39
3071.42	-47.5
3073.26	-26.5
3075.09	-39
3076.92	-31
3078.75	-33
3080.58	-34
3082.41	-34.5
3084.24	-35.5
3086.06	-44
3087.88	-34
3089.71	-28.5
3091.53	-41.5
3093.34	-35
3095.16	-37
3096.98	-41
3098.79	-50
3100.61	-26.5
3102.42	-38
3104.23	-32.5
3106.04	-48
3107.85	-34
3109.65	-36
3111.46	-36
3113.26	-39
3115.06	-41.5
3116.86	-37.5
3118.66	-43
3120.46	-49
3122.26	-41.5
3124.05	-45.5
3125.84	-30.5
3127.64	-43
3129.43	-44
3131.22	-35.5
3133	-40
3134.79	-23.5
3136.58	-29.5
3138.36	-39
3140.14	-31
3141.92	-46
3143.7	-31.5
3145.48	-27
3147.26	-40.5
3149.03	-44
3150.8	-34
3152.58	-38
3154.35	-43.5
3156.12	-29.5
3157.88	-40
3159.65	-33
3161.42	-28
3163.18	-34.5
3164.94	-39
3166.7	-21
3168.46	-47
3170.22	-30
3171.98	-44.5
3173.73	-38.5
3175.49	-35.5
3177.24	-32
3178.99	-27
3180.74	-23
3182.49	-44.5
3184.23	-26.5
3185.98	-25
3187.72	-35
3189.47	-26
3191.21	-31
3192.95	-35
3194.69	-33
3196.42	-33
3198.16	-24
3199.89	-42