File: raman_enhancement_factor/Renata_Raman_12_12_2025/Oil_BHT_0_8_Aged_50Xlens_785_1200grating_25%_acc3_acq3s_AE50000_1.txt
100.582	377
104.437	352
108.287	315
112.136	335
115.981	309
119.823	317
123.663	256
127.499	272
131.333	255
135.163	263.5
138.992	250.5
142.816	244
146.637	212
150.457	203
154.273	199
158.086	197
161.896	184.5
165.703	148
169.507	149.5
173.309	145
177.107	135
180.902	140
184.695	133
188.485	123
192.272	106
196.055	119.5
199.837	117.5
203.615	137
207.39	126
211.162	106.5
214.932	100
218.697	102
222.462	126.5
226.222	121.5
229.98	88
233.734	103
237.486	96.5
241.235	128
244.981	148.5
248.725	192.5
252.465	164.5
256.203	93
259.937	120.5
263.669	108.5
267.398	111
271.123	98.5
274.846	81
278.566	68.5
282.283	78
285.998	78
289.71	100
293.418	68
297.123	59
300.826	56.5
304.526	59.5
308.223	84.5
311.917	59
315.609	52
319.297	50
322.982	45
326.665	59.5
330.345	65
334.022	58.5
337.696	26
341.367	40.5
345.036	41.5
348.701	58
352.363	55
356.023	53
359.68	45
363.334	43.5
366.986	51
370.633	51
374.279	47
377.921	42
381.562	28
385.198	37
388.832	35
392.463	43
396.092	51
399.717	15
403.34	21
406.96	32
410.576	33
414.191	30
417.802	33
421.41	17
425.016	28
428.619	32.5
432.218	44
435.815	30
439.41	31
443.001	19
446.59	21
450.175	24
453.758	40.5
457.339	15
460.916	15
464.49	3
468.062	22
471.631	34
475.196	32
478.76	10
482.32	7
485.877	11
489.432	23
492.984	21
496.533	17
500.079	-8
503.622	16
507.163	16.5
510.701	15.5
514.236	25
517.768	13
521.297	2
524.823	10.5
528.348	17.5
531.868	30.5
535.386	25
538.902	2
542.414	-7
545.924	14.5
549.431	12
552.935	14
556.436	7
559.935	-8
563.431	-6.5
566.924	1
570.414	12
573.901	12
577.385	10
580.867	-9
584.347	-7.5
587.822	2
591.296	23
594.767	26
598.234	3
601.699	-2
605.161	7
608.621	15
612.078	5
615.532	4
618.983	-16
622.431	-13.5
625.877	8
629.32	1
632.76	-1
636.197	-5
639.632	-9
643.064	-8
646.493	9.5
649.919	-2
653.342	-5
656.764	-7
660.181	-5
663.596	-3
667.009	0.5
670.419	6.5
673.826	10
677.23	-12
680.631	3
684.03	0.5
687.426	-6.5
690.819	-6
694.21	-0.5
697.597	-10.5
700.982	7.5
704.364	5.5
707.744	9
711.12	29
714.495	9
717.865	12
721.234	14
724.6	8
727.962	14
731.323	18.5
734.681	-1
738.036	4.5
741.387	3.5
744.736	15.5
748.083	16.5
751.427	-6
754.768	3.5
758.107	-9
761.443	1
764.776	5
768.106	7
771.434	10
774.758	4.5
778.081	-3
781.399	6.5
784.716	-4
788.03	2
791.341	-12
794.65	-1
797.956	-12
801.259	8
804.559	5
807.857	1
811.152	-1
814.444	3
817.733	11
821.02	22
824.305	20
827.586	28
830.865	7
834.141	23.5
837.414	31
840.685	44.5
843.952	34.5
847.218	43.5
850.48	19.5
853.74	27.5
856.997	43
860.252	41
863.504	25
866.753	32
869.999	23.5
873.243	30.5
876.484	35.5
879.722	47
882.958	43
886.191	20
889.421	18
892.649	20.5
895.874	27.5
899.096	21
902.315	12
905.533	-1
908.747	0
911.958	28
915.167	24
918.374	28
921.577	4
924.778	15.5
927.977	11
931.173	32.5
934.365	30
937.556	19
940.743	2
943.928	4.5
947.11	17.5
950.29	23.5
953.467	24
956.641	7
959.813	6
962.982	22
966.149	16.5
969.312	24
972.473	32.5
975.631	7
978.787	-1
981.94	2
985.091	15.5
988.239	-19
991.384	-4
994.527	4
997.666	3.5
1000.8	6
1003.94	14
1007.07	-1
1010.2	1
1013.33	2
1016.45	3
1019.57	19
1022.69	5
1025.81	-3
1028.92	-4
1032.03	0
1035.14	12
1038.25	18
1041.35	18
1044.45	-2
1047.55	-1.5
1050.64	-4
1053.74	19
1056.83	20
1059.91	22.5
1063	20
1066.08	21
1069.16	20
1072.24	48
1075.31	34
1078.38	14
1081.45	-3
1084.52	26
1087.58	33
1090.64	34
1093.7	28
1096.76	10
1099.81	5
1102.86	-2
1105.91	21
1108.96	14.5
1112	6
1115.04	-3
1118.08	-4
1121.11	1
1124.15	25.5
1127.18	11
1130.2	-2
1133.23	-4.5
1136.25	-7
1139.27	-11
1142.29	6
1145.3	-22
1148.32	-9
1151.33	-4.67999
1154.33	-4.44214
1157.34	8.58612
1160.34	-2.7653
1163.34	-2.09072
1166.33	-15.9547
1169.33	-5.56614
1172.32	4.05978
1175.31	13.8323
1178.3	-4.5978
1181.28	-11.1586
1184.26	-8.82754
1187.24	12.1564
1190.22	6.47407
1193.19	3.0749
1196.16	3.36422
1199.13	-8.49464
1202.09	1.28963
1205.06	1.56772
1208.02	-0.15991
1210.98	5.72252
1213.93	3.20218
1216.89	5.71319
1219.84	11.0987
1222.78	5.73562
1225.73	10.5258
1228.67	13.1855
1231.61	20.343
1234.55	14.941
1237.49	12.0204
1240.42	3.87723
1243.35	16.5223
1246.28	30.0304
1249.2	41.3246
1252.12	34.6262
1254.74	47
1257.76	60.5
1260.79	65
1263.81	66
1266.82	62
1269.84	50
1272.85	54.5
1275.86	55
1278.87	43
1281.88	26
1284.88	28
1287.89	18
1290.89	26
1293.88	55
1296.88	60.5
1299.87	47
1302.86	60
1305.85	50
1308.84	49.5
1311.83	43
1314.81	40.5
1317.79	13.5
1320.77	23.5
1323.74	24.5
1326.72	22
1329.69	34
1332.66	33.5
1335.62	26.5
1338.59	23.5
1341.55	13
1344.51	9
1347.47	26.5
1350.43	15.5
1353.38	3
1356.33	14
1359.28	15
1362.23	31.5
1365.17	29
1368.12	20
1371.06	15
1373.99	6
1376.93	19
1379.86	13
1382.8	21
1385.73	6.5
1388.65	8.5
1391.58	-1
1394.5	0
1397.42	13
1400.34	3.5
1403.26	1
1406.17	1.5
1409.08	3
1411.99	8
1414.9	19
1417.81	17
1420.71	12.5
1423.61	9
1426.51	30
1429.41	47.5
1432.3	53.5
1435.2	58
1438.09	77
1440.97	62
1443.86	56
1446.74	47
1449.63	41.5
1452.5	37
1455.38	32
1458.26	5
1461.13	30
1464	33.5
1466.87	-6.5
1469.73	8
1472.6	2
1475.46	1.5
1478.32	3
1481.18	6.5
1484.03	-5.5
1486.89	-10
1489.74	-7.5
1492.59	-3
1495.43	-5
1498.28	-7
1501.12	-6.5
1503.96	-22
1506.8	-37
1509.64	-21
1512.47	1
1515.3	-8
1518.13	-11
1520.96	-15.5
1523.78	-22
1526.6	-2
1529.43	-10.5
1532.24	-6.5
1535.06	-21
1537.88	-20
1540.69	-15
1543.5	-10
1546.3	-15
1549.11	-27.5
1551.91	-17
1554.72	-21
1557.51	-3
1560.31	-11.5
1563.11	-36.5
1565.9	-34.5
1568.69	-28
1571.48	-19
1574.26	0
1577.05	-15
1579.83	-51
1582.61	-8
1585.39	-21
1588.16	-5
1590.94	-10.5
1593.71	-17.5
1596.48	-24
1599.24	-31
1602.01	-28
1604.77	-18
1607.53	-7.5
1610.29	-17
1613.05	-10.5
1615.8	-44
1618.55	-23.5
1621.3	-9
1624.05	-10.5
1626.79	-28
1629.54	-20.5
1632.28	-14
1635.02	-4
1637.75	-16
1640.49	-16.5
1643.22	-5
1645.95	-2
1648.68	25
1651.41	43
1654.13	41
1656.85	46.5
1659.57	35.5
1662.29	9.5
1665.01	8
1667.72	5
1670.43	-15
1673.14	-22
1675.85	-19
1678.55	-22
1681.25	-21
1683.95	-10.5
1686.65	-16
1689.35	-24
1692.04	-20
1694.74	-17
1697.43	-18
1700.11	-10
1702.8	-42
1705.48	-31
1708.16	-31.5
1710.84	-27.5
1713.52	-10.5
1716.2	-24.5
1718.87	-20.5
1721.54	-35.5
1724.21	-22
1726.88	-14
1729.54	-20
1732.2	-34.5
1734.86	-13.5
1737.52	-27
1740.18	-10
1742.83	-9
1745.48	-11
1748.13	-17
1750.78	-27
1753.43	-13
1756.07	-16.5
1758.71	-11.5
1761.35	-10
1763.99	-29
1766.62	-20.5
1769.25	-20
1771.89	-9.5
1774.51	-17
1777.14	-31.5
1779.76	-31
1782.39	-30
1785.01	-17
1787.63	-9
1790.24	-22
1792.86	-32
1795.47	-29
1798.08	-33
1800.68	-29.5
1803.29	-24
1805.89	-22
1808.49	-38.5
1811.09	-26
1813.69	-36
1816.29	-11.5
1818.88	-14.5
1821.47	-25
1824.06	-23
1826.65	-44
1829.23	-39
1831.81	-19.5
1834.39	-21.5
1836.97	-38
1839.55	-32
1842.12	-29.5
1844.69	-29
1847.26	-28
1849.83	-22
1852.4	-30.5
1854.96	-29
1857.52	-28
1860.08	-36
1862.64	-19.5
1865.19	-27.5
1867.75	-33
1870.3	-29
1872.85	-23
1875.4	-23.5
1877.94	-15.5
1880.48	-31
1883.02	-34
1885.56	-38
1888.1	-34
1890.63	-23
1893.17	-17
1895.7	-21
1898.23	-24
1900.75	-39
1903.28	-21
1905.8	-12
1908.32	-28
1910.84	-34
1913.35	-32
1915.87	-37
1918.38	-13
1920.89	-23.5
1923.4	-24
1925.9	-16.5
1928.41	-31
1930.91	-15
1933.41	-23
1935.9	-26.5
1938.4	-35
1940.89	-25
1943.38	-40
1945.87	-32
1948.36	-9.5
1950.84	-24.5
1953.33	-42.5
1955.81	-37.5
1958.29	-30
1960.76	-17
1963.24	-21.5
1965.71	-26
1968.18	-31.5
1970.65	-44
1973.12	-27.5
1975.58	-10
1978.04	-23.5
1980.5	-37
1982.96	-19
1985.42	-40
1987.87	-18
1990.32	-12.5
1992.78	-35.5
1995.22	-38.5
1997.67	-29.95
2000.11	-27.9802
2002.56	-21.139
2004.99	-8.35857
2007.43	-26.798
2009.87	-25.3211
2012.3	-29.0798
2014.73	-26.9643
2017.16	-16.8683
2019.59	-16.4105
2022.02	-24.1568
2024.44	-32.7072
2026.86	-30.1657
2029.28	-14.8442
2031.7	-20.3479
2034.11	-21.8143
2036.53	-31.7669
2038.94	-25.719
2041.35	-27.4716
2043.76	-23.8179
2046.16	-17.4985
2048.56	-19.7435
2050.97	-24.0987
2053.36	-34.7715
2055.76	-25.7067
2058.16	-14.779
2060.55	-22.2561
2062.94	-25.0741
2065.33	-29.7617
2067.72	-15.9813
2070.1	-11.5818
2072.49	-17.0811
2074.87	-8.96849
2077.25	-22.3512
2079.62	-10.2404
2081.38	-17
2083.86	-4
2086.34	-25
2088.81	-23
2091.29	-13.5
2093.76	-3.5
2096.23	-13
2098.7	-13
2101.17	-19
2103.64	-11
2106.1	-15
2108.56	-12
2111.03	-14
2113.48	-24
2115.94	-9
2118.4	-24
2120.85	-21.5
2123.3	-8
2125.76	-33
2128.2	-22
2130.65	-17.5
2133.1	-4.5
2135.54	-19.5
2137.98	-15
2140.42	-22
2142.86	-16
2145.3	-33.5
2147.73	-9.5
2150.16	-22
2152.6	-29
2155.02	-7
2157.45	-12
2159.88	-19.5
2162.3	-15.5
2164.73	-20.5
2167.15	-31
2169.57	-20
2171.98	-15.5
2174.4	-20
2176.81	-12
2179.22	-34
2181.63	-31
2184.04	-32
2186.45	-24.5
2188.86	-27
2191.26	-25
2193.66	-38
2196.06	-20
2198.46	-34
2200.85	-20
2203.25	-22.5
2205.64	-34
2208.03	-36
2210.42	-30
2212.81	-43.5
2215.2	-23
2217.58	-35
2219.96	-44
2222.34	-35
2224.72	-27
2227.1	-28.5
2229.47	-32
2231.85	-38
2234.22	-25
2236.59	-25
2238.96	-27
2241.33	-39.5
2243.69	-36
2246.05	-39
2248.41	-51
2250.77	-33
2253.13	-33.5
2255.49	-38.5
2257.84	-25
2260.2	-26
2262.55	-33
2264.9	-27
2267.24	-36.5
2269.59	-37
2271.93	-35
2274.28	-34
2276.62	-39
2278.96	-20.5
2281.29	-36.5
2283.63	-28.5
2285.96	-37
2288.29	-43
2290.62	-20
2292.95	-34
2295.28	-30
2297.6	-38
2299.93	-34
2302.25	-55
2304.57	-39
2306.89	-37
2309.2	-36.5
2311.52	-30.5
2313.83	-35
2316.14	-45
2318.45	-26
2320.76	-37.5
2323.06	-41
2325.37	-37
2327.67	-24
2329.97	-37.5
2332.27	-41.5
2334.57	-36
2336.86	-26
2339.16	-42
2341.45	-35
2343.74	-35
2346.03	-30
2348.31	-36.5
2350.6	-23
2352.88	-30
2355.17	-28
2357.45	-39
2359.72	-44.5
2362	-42
2364.28	-37.5
2366.55	-38
2368.82	-31.5
2371.09	-35.5
2373.36	-35.5
2375.62	-30
2377.89	-29
2380.15	-28
2382.41	-38
2384.67	-30
2386.93	-32.5
2389.18	-29
2391.44	-34
2393.69	-39
2395.94	-38
2398.19	-38
2400.44	-39
2402.68	-27
2404.93	-23
2407.17	-32
2409.41	-34
2411.65	-35.5
2413.89	-40.5
2416.12	-30
2418.35	-34
2420.59	-44
2422.82	-42
2425.04	-32
2427.27	-36
2429.5	-30
2431.72	-35
2433.94	-42
2436.16	-53
2438.38	-31
2440.59	-28
2442.81	-40
2445.02	-40
2447.23	-46.5
2449.44	-33
2451.65	-34
2453.86	-47
2456.06	-33
2458.26	-39.5
2460.46	-46.5
2462.66	-26
2464.86	-32
2467.06	-52
2469.25	-32
2471.44	-37.5
2473.63	-38.5
2475.82	-32
2478.01	-26.5
2480.19	-33
2482.38	-39.5
2484.56	-45
2486.74	-50
2488.92	-37
2491.1	-36
2493.27	-36.75
2495.45	-41
2497.62	-24
2499.79	-26.5
2501.96	-35
2504.12	-43
2506.29	-34
2508.45	-31.5
2510.61	-40
2512.77	-39
2514.93	-48
2517.09	-40
2519.24	-46
2521.4	-37
2523.55	-45.5
2525.7	-26
2527.84	-38
2529.99	-33
2532.14	-32
2534.28	-36
2536.42	-30.5
2538.56	-35
2540.7	-29
2542.83	-44.5
2544.97	-31.5
2547.1	-37
2549.23	-32.5
2551.36	-28.5
2553.49	-27
2555.61	-26
2557.74	-33.5
2559.86	-42
2561.98	-34.5
2564.1	-20
2566.22	-51
2568.33	-33
2570.45	-45
2572.56	-29
2574.67	-24.5
2576.78	-41
2578.89	-34
2580.99	-34
2583.1	-37
2585.2	-46.5
2587.3	-26
2589.4	-36
2591.5	-34
2593.59	-40.5
2595.68	-37.5
2597.78	-29.5
2599.87	-50
2601.96	-41
2604.04	-26
2606.13	-39.5
2608.21	-46
2610.29	-44
2612.37	-45
2614.45	-28
2616.53	-34
2618.6	-32.5
2620.68	-32.5
2622.75	-31
2624.82	-39
2626.89	-38
2628.96	-30.5
2631.02	-34
2633.08	-30.5
2635.15	-46
2637.21	-34.5
2639.26	-34
2641.32	-26
2643.38	-40
2645.43	-28
2647.48	-39
2649.53	-46
2651.58	-31.5
2653.63	-39.5
2655.67	-22.5
2657.71	-35.5
2659.76	-38
2661.8	-30.5
2663.83	-36
2665.87	-34
2667.91	-35
2669.94	-47
2671.97	-46
2674	-22
2676.03	-37.5
2678.06	-42
2680.08	-18
2682.1	-27
2684.12	-14.5
2686.14	-27
2688.16	-33.5
2690.18	-45
2692.19	-31
2694.21	-43.6906
2696.22	-37.3176
2698.23	-27.7819
2700.24	-22.9629
2702.24	-31.0441
2704.25	-20.3545
2706.25	-30.5796
2708.25	-29.6476
2710.25	-38.907
2712.25	-24.7373
2714.25	-25.2904
2716.24	-27.0388
2718.23	-29.7596
2720.23	-31.0691
2722.22	-26.8168
2724.2	-22.2508
2726.19	-23.3841
2728.18	-36.6546
2730.16	-35.7502
2732.14	-35.834
2734.12	-29.8668
2736.1	-23.8636
2738.07	-28.3892
2740.05	-31.5572
2742.02	-18.0801
2743.99	-31.8135
2745.96	-32.6807
2747.93	-25.2334
2749.9	-28.6411
2751.86	-18.0373
2753.83	-23.6068
2755.79	-23.2681
2757.75	-17.1119
2759.71	-23.7289
2761.66	-4.98619
2763.63	-21.5
2765.69	-31
2767.75	-18
2769.81	-8
2771.87	-12
2773.92	-11
2775.97	-22.5
2778.03	-24
2780.08	-27
2782.12	-16.5
2784.17	-13
2786.22	-15
2788.26	-23
2790.31	-20
2792.35	-26
2794.39	-5.5
2796.43	-6.5
2798.46	-19.5
2800.5	-16.5
2802.54	-36
2804.57	-21
2806.6	-14
2808.63	-12
2810.66	-25
2812.69	-32.5
2814.71	-18
2816.74	-18
2818.76	-15
2820.78	-23
2822.8	-21
2824.82	-17
2826.84	-20
2828.86	-16
2830.87	-18
2832.88	-27
2834.9	-23.5
2836.91	-23
2838.91	-24
2840.92	-6.5
2842.93	-13
2844.93	-20
2846.93	-24
2848.94	-15
2850.94	5
2852.94	-18
2854.93	-15
2856.93	-8.5
2858.92	-19
2860.92	-9
2862.91	-15
2864.9	-16
2866.89	-18.5
2868.87	-23
2870.86	-22
2872.84	-18
2874.83	-13
2876.81	-20.5
2878.79	-35.5
2880.77	-24
2882.75	-15
2884.72	-21
2886.7	-9.5
2888.67	-26
2890.64	-32
2892.61	-35
2894.58	-15
2896.55	-33
2898.51	-18
2900.48	-26.5
2902.44	-25.5
2904.4	-43
2906.36	-15
2908.32	-20
2910.28	-28
2912.23	-29
2914.19	-42.5
2916.14	-17
2918.09	-17
2920.04	-16.5
2921.99	-45
2923.94	-33
2925.88	-27
2927.83	-15
2929.77	-32
2931.71	-20.5
2933.65	-29.5
2935.59	-38
2937.53	-20
2939.46	-24
2941.4	-27.5
2943.33	-29
2945.26	-32.5
2947.19	-30
2949.12	-17
2951.05	-33
2952.98	-34
2954.9	-28.5
2956.82	-23
2958.74	-34.5
2960.66	-31
2962.58	-29
2964.5	-41.5
2966.42	-28.5
2968.33	-50.5
2970.24	-37
2972.15	-25
2974.06	-15.5
2975.97	-34.5
2977.88	-28
2979.79	-42.5
2981.69	-31
2983.59	-32
2985.49	-34.5
2987.39	-35
2989.29	-31
2991.19	-29.5
2993.09	-28
2994.98	-22
2996.87	-40.5
2998.77	-48
3000.66	-38
3002.54	-38
3004.43	-47
3006.32	-34.5
3008.2	-30
3010.08	-43
3011.97	-44
3013.85	-22
3015.72	-27
3017.6	-27
3019.48	-38
3021.35	-39
3023.23	-28.5
3025.1	-42
3026.97	-34.5
3028.84	-41.5
3030.7	-37.5
3032.57	-32.5
3034.43	-32
3036.3	-38
3038.16	-24
3040.02	-30.5
3041.88	-38.5
3043.73	-40.5
3045.59	-64
3047.44	-32
3049.3	-29.5
3051.15	-32
3053	-38
3054.85	-37
3056.7	-36
3058.54	-19.5
3060.39	-24
3062.23	-36.5
3064.07	-43
3065.91	-36
3067.75	-29.5
3069.59	-30.5
3071.42	-31
3073.26	-35.5
3075.09	-43
3076.92	-32.5
3078.75	-39
3080.58	-31.5
3082.41	-41
3084.24	-43.5
3086.06	-49
3087.88	-38.5
3089.71	-24
3091.53	-36
3093.34	-39.5
3095.16	-35.5
3096.98	-36
3098.79	-36
3100.61	-21
3102.42	-37.5
3104.23	-34.5
3106.04	-48
3107.85	-29.5
3109.65	-29.5
3111.46	-22
3113.26	-33.5
3115.06	-39
3116.86	-42.5
3118.66	-39
3120.46	-22.5
3122.26	-23.5
3124.05	-29
3125.84	-49
3127.64	-36.5
3129.43	-35
3131.22	-26
3133	-21.5
3134.79	-30
3136.58	-32.5
3138.36	-40
3140.14	-18.5
3141.92	-25.5
3143.7	-33
3145.48	-46
3147.26	-41
3149.03	-31.5
3150.8	-23
3152.58	-23.5
3154.35	-42
3156.12	-37.5
3157.88	-35
3159.65	-41
3161.42	-30
3163.18	-42.5
3164.94	-42
3166.7	-44
3168.46	-33
3170.22	-40
3171.98	-15.5
3173.73	-37
3175.49	-32.5
3177.24	-50
3178.99	-23.5
3180.74	-30
3182.49	-28
3184.23	-34.5
3185.98	-32.5
3187.72	-49.5
3189.47	-17
3191.21	-32
3192.95	-38
3194.69	-45.5
3196.42	-39.5
3198.16	-32
3199.89	-34