File: Database/Code for parser/spectra/Raman_Horiba_Oil-BHT-0.8wt-NA-liquid-Q2-fresh_ATR_R02.txt
#Acq. time (s)=	15
#Accumulations=	1
#Range (cm-¹)=	400...3400
#Windows=	4
#Auto scanning=	Off
#Autofocus=	Off
#AutoExposure=	Off
#Spike filter=	Single accum. (Size=3)
#Delay time (s)=	0
#Binning=	1
#Readout mode=	Signal
#DeNoise=	Standard
#ICS correction=	Off
#Dark correction=	Off
#Inst. Process=	Off
#Detector Gain=	Best Dynamic Range
#Detector ADC=	1 MHz
#Detector temperature (°C)=	-59.98
#Instrument=	XploRA Plus
#Detector=	Syncerity
#Objective=	x20
#Grating=	1200 gr/mm
#Filter=	10%
#Laser (nm)=	785
#Slit (µm)=	100
#Hole (µm)=	100
#Fiber=	Off
#E-Cal_Neon=	0
#StageXY=	Marzhauser
#StageZ=	Marzhauser
#X (µm)=	0
#Y (µm)=	0
#Z (µm)=	-2961.75
#Spectral res.(cm-¹)=	3.2
#Full time(mm:ss)=	1:27
#AC=	Calibrated 2025-09-30 09:39
#Project=	Sydney
#Sample=	PET
#Site=	The
#Title=	Q2_emp_785_1200_20x_10%_15s_1t_2
#Remark=
#Date=	30.09.2025 10:35
#Acquired=	30.09.2025 10:35:40
#AxisType[0]=Intens
#AxisUnit[0]=Cnt
#AxisType[1]=Spectr
#AxisUnit[1]=1/cm
400.069	85.7087
403.702	81.5986
407.331	86.6108
410.958	90.9038
414.583	92.1657
418.204	93.346
421.823	92.0174
425.439	84.7256
429.052	79.2438
432.663	84.102
436.271	81.5855
439.876	82.099
443.479	83.22
447.079	82.7127
450.675	81.7464
454.27	81.7379
457.862	79.8709
461.451	76.2542
465.037	72.9602
468.62	73.0526
472.202	78.7724
475.779	85.6201
479.355	82.1773
482.927	65.9932
486.498	442
490.065	45.1492
493.63	52.0556
497.191	55.3771
500.751	58.2595
504.307	61.1462
507.861	63.5284
511.412	65.0733
514.96	67.5234
518.507	67.3742
522.049	67.0488
525.589	67.1409
529.127	67.6598
532.662	68.0723
536.195	71.0989
539.724	71.2229
543.251	71.8391
546.775	72.9439
550.297	74.1308
553.815	74.7509
557.332	74.3915
560.845	73.0104
564.356	70.2731
567.864	71.684
571.369	72.0406
574.872	70.1742
578.372	67.0552
581.87	65.5157
585.364	69.8096
588.856	71.9514
592.346	73.5451
595.832	75.4734
599.317	74.9097
602.798	71.9993
606.277	72.5756
609.752	77.6708
613.226	94.6493
616.697	117.642
620.164	130.195
623.63	115.192
627.092	83.764
630.552	68.5611
634.01	62.2083
637.465	62.5511
640.916	60.3148
644.366	61.7642
647.813	61.4533
651.256	62.203
654.698	62.141
658.136	61.0089
661.573	59.2686
665.006	57.2532
668.437	56.5294
671.865	58.8153
675.291	63.8537
678.713	67.232
682.133	67.1644
685.551	63.586
688.966	59.0139
692.378	57.3729
695.788	57.1692
699.195	59.5172
702.599	63.5619
706.001	60.741
709.399	56.0706
712.796	54.8627
716.189	58.9489
719.581	57.8075
722.969	57.4115
726.355	57.7058
729.739	60.5685
733.119	67.7142
736.497	76.2198
739.872	82.8762
743.245	88.6685
746.615	90.922
749.982	86.1768
753.347	79.0896
756.709	72.795
760.069	69.381
763.425	70.1863
766.78	73.0298
770.132	76.8367
773.481	76.9143
776.827	74.7238
780.171	73.5298
783.512	71.9563
786.85	73.0197
790.186	70.6444
793.52	67.224
796.85	61.9058
800.178	58.4893
803.504	58.1747
806.827	60.534
810.147	60.9981
813.464	60.2832
816.78	58.9349
820.092	58.9097
823.402	61.2642
826.709	64.6311
830.013	62.4971
833.315	59.1183
836.615	55.9481
839.912	53.1093
843.207	50.9436
846.498	50.9834
849.787	50.254
853.073	49.9721
856.357	51.9998
859.638	51.2704
862.917	47.7384
866.192	44.642
869.466	44.3564
872.737	46.02
876.005	48.0438
879.271	49.0721
882.534	47.0955
885.795	45.3996
889.052	42.78
892.307	42.1918
895.56	45.6349
898.811	47.5678
902.058	46.4278
905.303	42.9975
908.546	39.7089
911.785	37.6375
915.022	38.538
918.257	40.3058
921.489	40.8825
924.719	40.2266
927.945	38.0264
931.17	36.5869
934.391	35.7787
937.611	35.8512
940.827	35.3403
944.042	35.0246
947.253	35.3784
950.462	36.9143
953.668	36.9118
956.872	37.5599
960.073	37.6275
963.272	39.4939
966.468	45.5099
969.661	46.7012
972.852	40.9508
976.041	40.5366
979.227	47.8691
982.41	51.6313
985.591	61.3684
988.769	77.0459
991.945	99.5309
995.117	138.203
998.288	273.672
1001.46	411.686
1004.62	203.279
1007.78	89.6853
1010.94	55.5328
1014.1	58.1916
1017.26	44.6021
1020.41	49.6165
1023.56	61.1559
1026.71	87.6591
1029.85	122.458
1033	122.47
1036.14	91.9484
1039.27	65.1016
1042.41	48.199
1045.54	40.7472
1048.67	38.2305
1051.8	36.8754
1054.92	36.2156
1058.04	37.9038
1061.16	40.3257
1064.28	40.7224
1067.4	40.1251
1070.51	39.6002
1073.62	39.7448
1076.72	39.1439
1079.83	40.665
1082.93	40.7155
1086.03	39.384
1089.13	41.8021
1092.22	40.8609
1095.31	38.7539
1098.4	41.7104
1101.49	43.7183
1104.57	42.6822
1107.66	37.5904
1110.74	32.2281
1113.81	25.5496
1116.89	23.4409
1119.96	24.5494
1123.03	27.8094
1126.09	30.747
1129.16	29.8736
1132.22	27.1976
1135.28	26.0812
1138.34	28.6135
1141.39	29.8121
1144.44	31.3112
1147.49	33.5272
1150.54	41.395
1153.58	50.2846
1156.62	52.5972
1159.66	48.8196
1162.7	44.7247
1165.73	41.752
1168.76	39.4651
1171.79	46.5872
1174.82	254
1177.84	49.3322
1180.87	66.3517
1183.89	67.3672
1186.9	69.5761
1189.92	69.0232
1192.93	67.0108
1195.94	68.6065
1198.94	71.749
1201.95	73.6058
1204.95	67.7046
1207.95	57.0771
1210.95	44.7418
1213.94	37.9837
1216.93	34.871
1219.92	35.17
1222.91	35.4391
1225.89	35.8425
1228.88	35.8531
1231.85	36.511
1234.83	37.0353
1237.81	35.8468
1240.78	33.5623
1243.75	30.584
1246.72	30.51
1249.68	32.4097
1252.64	34.6037
1255.6	36.6902
1258.56	37.8695
1261.51	37.4631
1264.47	39.2393
1267.42	42.7592
1270.36	44.5382
1273.31	42.8823
1276.25	39.0771
1279.19	35.9913
1282.13	34.6447
1285.06	37.0012
1288	40.4665
1290.93	45.1211
1293.85	48.8338
1296.78	48.2946
1299.7	46.3111
1302.62	47.2535
1305.54	48.0052
1308.46	48.3606
1311.37	47.9484
1314.28	46.6207
1317.19	44.4277
1320.09	42.2891
1323	40.8323
1325.9	41.073
1328.8	41.6538
1331.69	42.0704
1334.59	42.2801
1337.48	42.0632
1340.37	43.144
1343.25	42.9915
1346.14	39.6117
1349.02	34.0529
1351.9	30.3347
1354.77	27.8578
1357.65	28.7242
1360.52	28.9691
1363.39	28.3989
1366.25	28.3441
1369.12	28.9261
1371.98	30.1937
1374.84	30.4901
1377.7	27.1395
1380.55	20.1104
1383.4	17.381
1386.25	19.032
1389.1	21.4246
1391.94	21.8533
1394.79	21.4747
1397.63	21.5938
1400.46	23.213
1403.3	24.862
1406.13	25.6866
1408.96	25.9072
1411.79	25.7213
1414.62	24.3183
1417.44	22.3833
1420.26	21.42
1423.08	21.4482
1425.9	23.7957
1428.71	26.3032
1431.52	27.9014
1434.33	28.6932
1437.14	30.4475
1439.94	33.1613
1442.74	37.1723
1445.54	43.6839
1448.34	46.7761
1451.13	45.0196
1453.92	37.5202
1456.71	29.75
1459.5	23.2021
1462.29	17.8703
1465.07	16.6544
1467.85	18.64
1470.63	19.7506
1473.4	20.6952
1476.17	21.4712
1478.94	20.9862
1481.71	18.3939
1484.48	19.0777
1487.24	21.1082
1489.36	22.9156
1492.23	27.4543
1495.09	32.2538
1497.96	32.6415
1500.82	31.8312
1503.67	31.0414
1506.53	29.5813
1509.38	27.3259
1512.23	27.4951
1515.08	28.1811
1517.93	29.5346
1520.78	32.0742
1523.62	34.5339
1526.46	35.7267
1529.3	35.554
1532.14	34.4041
1534.97	32.4205
1537.8	29.8562
1540.63	26.6855
1543.46	23.2785
1546.29	20.4312
1549.11	21.0038
1551.94	23.5845
1554.76	24.9823
1557.57	26.2622
1560.39	29.3644
1563.2	27.7748
1566.02	26.3838
1568.83	25.2847
1571.63	25.0518
1574.44	26.3548
1577.24	29.4957
1580.05	31.1469
1582.84	31.0577
1585.64	29.8351
1588.44	28.5503
1591.23	30.617
1594.02	35.1212
1596.81	46.9465
1599.6	60.1288
1602.38	60.8622
1605.17	48.0923
1607.95	36.7693
1610.73	31.5626
1613.5	27.1317
1616.28	25.6507
1619.05	26.4793
1621.82	23.5934
1624.59	19.7841
1627.36	19.0978
1630.12	18.2545
1632.89	19.2804
1635.65	22.2936
1638.41	22.5432
1641.16	20.2864
1643.92	19.4373
1646.67	17.6993
1649.42	19.788
1652.17	19.4919
1654.91	16.4964
1657.66	16.7024
1660.4	20.1592
1663.14	21.9088
1665.88	19.7747
1668.61	17.8838
1671.35	13.7748
1674.08	10.702
1676.81	10.1122
1679.53	10.5006
1682.26	6.83691
1684.98	4.84064
1687.71	5.83513
1690.42	7.29678
1693.14	8.34646
1695.86	8.82482
1698.57	8.07871
1701.28	4.81842
1703.99	3.04627
1706.7	2.42262
1709.4	2.61314
1712.11	3.9511
1714.81	5.80722
1717.51	5.71431
1720.2	4.14914
1722.9	1.57315
1725.59	-2.00593
1728.28	-3.19075
1730.97	-1.3171
1733.66	2.05043
1736.34	3.40259
1739.03	2.88232
1741.71	0.60359
1744.38	0.49279
1747.06	0.312192
1749.74	-0.946792
1752.41	-2.3837
1755.08	-3.49609
1757.75	-3.88163
1760.41	-3.80643
1763.08	-2.96811
1765.74	-1.14172
1768.4	-0.842632
1771.06	-2.53622
1773.72	-3.99866
1776.37	-4.2821
1779.02	-2.0374
1781.67	0.386981
1784.32	1.26339
1786.97	0.223197
1789.61	-1.52668
1792.25	-3.34096
1794.89	-4.81204
1797.53	-5.75424
1800.17	-5.72334
1802.8	-6.90195
1805.43	-8.20495
1808.06	-8.36257
1810.69	-7.02645
1813.32	-4.24646
1815.94	-1.91039
1818.56	-2.39614
1821.18	-4.1086
1823.8	-5.16542
1826.42	-5.37579
1829.03	-4.89445
1831.64	-4.57593
1834.25	-4.64713
1836.86	-5.05393
1839.46	-4.82992
1842.07	-4.10503
1844.67	-3.29938
1847.27	-3.15634
1849.87	-3.40565
1852.46	-3.97321
1855.06	-4.95198
1857.65	-6.31154
1860.24	-6.73673
1862.82	-5.64829
1865.41	-4.05385
1867.99	-3.35635
1870.58	-4.34643
1873.16	-6.69986
1875.73	-14.0633
1878.31	-12.6431
1880.88	-7.55099
1883.45	-5.09054
1886.02	-9.04061
1888.59	-9.20965
1891.16	-8.80847
1893.72	-7.09566
1896.28	-5.56077
1898.84	-4.96884
1901.4	-5.65829
1903.95	-6.38397
1906.51	-5.81479
1909.06	-6.21699
1911.61	-7.29376
1914.15	-6.88732
1916.7	-7.13558
1919.24	-8.8201
1921.78	-10.0678
1924.32	-10.024
1926.86	-9.39733
1929.4	-7.72482
1931.93	-5.83428
1934.46	-4.32776
1936.99	-3.8425
1939.52	-3.67839
1942.04	-5.72246
1944.57	-7.94498
1947.09	-8.49162
1949.61	-10.5287
1952.13	-12.0487
1954.64	-9.94995
1957.15	-7.57285
1959.67	-8.22087
1962.18	-8.58471
1964.68	-8.68372
1967.19	-8.6348
1969.69	-8.19021
1972.19	-7.52712
1974.69	-8.14194
1977.19	-10.779
1979.69	-13.0973
1982.18	-13.7639
1984.67	-12.1401
1987.16	-11.7371
1989.65	-9.58601
1992.13	-10.1199
1994.62	-11.9625
1997.1	-13.9636
1999.58	-15.0058
2002.06	-14.0405
2004.53	-12.3463
2007.01	-12.2815
2009.48	-15.144
2011.95	-16.0764
2014.42	-15.2159
2016.88	-14.8651
2019.35	-12.9569
2021.81	-11.7482
2024.27	-10.7573
2026.73	-10.3614
2029.18	-11.0813
2031.64	-12.4477
2034.09	-12.6245
2036.54	-13.5898
2038.99	-16.0447
2041.43	-18.0924
2043.88	-17.4079
2046.32	-14.1935
2048.76	-10.5747
2051.2	-11.0883
2053.63	-11.9127
2056.07	-12.3098
2058.5	-11.9832
2060.93	-10.6596
2063.36	-8.83026
2065.79	-7.90867
2068.21	-8.36006
2070.63	-9.28321
2073.05	-10.351
2075.47	-10.5564
2077.89	-9.86118
2080.3	-11.3664
2082.72	-13.775
2085.13	-15.8404
2087.53	-17.3567
2089.94	-17.9589
2092.35	-17.3572
2094.75	-17.5204
2097.15	-17.3476
2099.55	-16.8684
2101.95	-16.2579
2104.34	-15.4204
2106.73	-14.237
2109.13	-15.373
2111.51	-14.4054
2113.9	-13.5676
2116.29	-17.7044
2118.67	-20.7411
2121.05	-20.8604
2123.43	-11.0468
2125.81	-10.3943
2128.18	-14.17
2130.56	-17.6969
2132.93	-18.6112
2135.3	-17.5762
2137.67	-15.9878
2140.03	-13.8477
2142.4	-13.2977
2144.76	-11.7909
2147.12	-11.4189
2149.48	-11.992
2151.83	-13.3258
2154.19	-15.5753
2156.54	-18.3204
2158.89	-17.344
2161.24	-13.1277
2163.58	-12.3093
2165.93	-12.4042
2168.27	-12.6598
2170.61	-12.951
2172.95	-13.1136
2175.29	-12.8779
2177.62	-12.3799
2179.95	-11.5314
2182.28	-10.206
2184.61	-10.3243
2186.94	-12.4829
2189.26	-14.6973
2191.59	-16.9873
2193.91	-19.4772
2196.23	-16.7565
2198.54	-11.9628
2200.86	-9.00547
2203.17	-9.61512
2205.48	-12.1139
2207.79	-12.8319
2210.1	-11.2008
2212.41	-8.64707
2214.71	-9.46411
2217.01	-9.45409
2219.31	-9.26775
2221.61	-9.56965
2223.91	-8.08499
2226.2	-4.88842
2228.49	-0.329498
2230.78	5.81732
2233.07	10.8952
2235.36	13.0088
2237.64	12.3709
2239.93	9.2989
2242.21	5.48194
2244.48	2.08412
2246.76	-0.700876
2249.04	-3.00805
2251.31	-5.29286
2253.58	-7.38739
2255.85	-7.40716
2258.12	-5.53352
2260.38	-3.44828
2262.65	-1.27489
2264.91	0.699942
2267.17	2.81532
2269.42	4.84098
2271.68	7.1385
2273.97	7.03223
2276.33	6.59066
2278.69	6.35003
2281.05	7.2358
2283.4	8.50549
2285.75	8.67898
2288.1	5.83712
2290.45	3.3383
2292.8	2.24052
2295.15	2.93193
2297.49	5.81468
2299.83	9.88056
2302.17	11.8018
2304.51	11.4884
2306.85	11.0496
2309.19	7.22517
2311.52	6.73678
2313.85	8.27185
2316.18	9.13295
2318.51	7.62363
2320.84	4.16146
2323.17	-0.153894
2325.49	-1.22272
2327.81	-1.30131
2330.13	-1.22143
2332.45	-1.17486
2334.77	-0.709651
2337.09	-0.163683
2339.4	0.462614
2341.71	1.28407
2344.03	2.02815
2346.33	2.51273
2348.64	2.12735
2350.95	0.908507
2353.25	-0.281346
2355.56	-0.996149
2357.86	-1.23265
2360.16	-0.756609
2362.45	-0.241595
2364.75	-0.163449
2367.04	0.0349412
2369.34	-0.235045
2371.63	-1.38587
2373.92	0.608762
2376.21	1.02184
2378.49	0.174789
2380.78	-0.254634
2383.06	-0.139639
2385.34	0.728193
2387.62	1.11584
2389.9	-2.76317
2392.17	-4.70811
2394.45	-3.06241
2396.72	0.0502087
2398.99	1.90938
2401.26	2.51971
2403.53	1.27758
2405.8	-1.36533
2408.06	-3.82597
2410.32	-3.8903
2412.59	-3.50998
2414.85	-3.59264
2417.1	-4.9781
2419.36	-6.85295
2421.61	-8.77253
2423.87	-9.27678
2426.12	-6.72819
2428.37	-4.4966
2430.62	-4.68489
2432.86	-5.91406
2435.11	-6.1398
2437.35	-4.88308
2439.59	-2.24385
2441.83	0.210156
2444.07	0.835673
2446.31	-1.7094
2448.54	-4.5947
2450.78	-6.85458
2453.01	-8.10331
2455.24	-8.33211
2457.47	-8.21579
2459.69	-8.35491
2461.92	-8.82945
2464.14	-9.89948
2466.36	-10.3379
2468.58	-7.22567
2470.8	-5.27245
2473.02	-4.34048
2475.23	-5.89386
2477.45	-10.894
2479.66	-16.0414
2481.87	-17.3776
2484.08	-16.6694
2486.29	-13.9473
2488.49	-9.51623
2490.69	-6.40258
2492.9	-5.17894
2495.1	-7.52443
2497.3	-15.5936
2499.49	-12.1868
2501.69	-9.09281
2503.88	-10.6591
2506.07	-11.5758
2508.26	-9.36361
2510.45	-8.89787
2512.64	-7.62348
2514.83	-7.64347
2517.01	-8.88483
2519.19	-10.5086
2521.37	-12.2993
2523.55	-14.8981
2525.73	-14.707
2527.91	-13.2968
2530.08	-11.7449
2532.25	-10.5762
2534.42	-10.5053
2536.59	-13.2784
2538.76	-13.9277
2540.93	-13.6597
2543.09	-13.6205
2545.25	-13.728
2547.42	-13.9904
2549.57	-14.533
2551.73	-15.9081
2553.89	-14.1556
2556.04	-13.7207
2558.2	-15.7867
2560.35	-18.8891
2562.5	-15.9532
2564.64	-4.01056
2566.79	-5.35461
2568.94	-10.2285
2571.08	-9.90603
2573.22	-11.1365
2575.36	-11.7599
2577.5	-11.5383
2579.64	-11.2825
2581.77	-11.3176
2583.9	-12.4888
2586.03	-14.9423
2588.16	-14.1018
2590.29	-14.4216
2592.42	-13.9568
2594.54	-16.1099
2596.67	-14.8102
2598.79	-12.1123
2600.91	-11.0582
2603.03	-13.2713
2605.15	-15.3172
2607.26	-17.261
2609.37	-15.955
2611.49	-11.5802
2613.6	-8.78643
2615.71	-11.4873
2617.81	-14.9178
2619.92	-17.2042
2622.02	-16.7633
2624.13	-13.1594
2626.23	-10.2065
2628.33	-11.3701
2630.42	-13.1378
2632.52	-13.8878
2634.61	-14.1246
2636.71	-14.521
2638.8	-15.5496
2640.89	-16.9403
2642.97	-17.0297
2645.06	-16.4907
2647.14	-19.3222
2649.23	-20.841
2651.31	-19.2886
2653.39	-16.9917
2655.47	-15.6172
2657.54	-15.5922
2659.62	-17.3546
2661.69	-20.1792
2663.76	-20.6586
2665.83	-18.333
2667.9	-15.7233
2669.97	-15.3942
2672.03	-15.2323
2674.09	-14.4422
2676.16	-13.4609
2678.22	-12.5962
2680.27	-12.3767
2682.33	-13.3574
2684.39	-14.5837
2686.44	-15.4605
2688.49	-16.7359
2690.54	-17.7004
2692.59	-16.8781
2694.64	-16.0395
2696.68	-15.8715
2698.73	-16.2384
2700.77	-17.6191
2702.81	-17.8842
2704.85	-16.0999
2706.89	-14.7406
2708.92	-13.8958
2710.96	-14.1795
2712.99	-15.3644
2715.02	-16.7347
2717.05	-16.8428
2719.08	-16.765
2721.1	-17.2421
2723.13	-18.4864
2725.15	-19.1636
2727.17	-18.0424
2729.19	-16.2961
2731.21	-14.803
2733.23	-16.9745
2735.24	-18.843
2737.25	-18.8248
2739.27	-16.9905
2741.28	-15.0204
2743.29	-12.7449
2745.29	-15.8003
2747.3	-17.9988
2749.3	-18.0501
2751.3	-18.109
2753.3	-18.8036
2755.3	-18.6123
2757.3	-17.0287
2759.29	-14.4563
2761.29	-13.6954
2763.28	-14.5832
2765.27	-18.4739
2767.26	-21.2088
2769.25	-20.8993
2771.23	-19.3552
2773.22	-18.3526
2775.2	-18.1116
2777.18	-18.413
2779.16	-18.8054
2781.14	-18.4742
2783.12	-17.2832
2785.09	-14.9253
2787.06	-14.5532
2789.03	1642
2791.01	-26.0247
2792.97	-16.0878
2794.94	-18.0887
2796.9	-17.0246
2798.87	-16.6586
2800.83	-16.6254
2802.79	-16.8094
2804.75	-16.8845
2806.71	-16.5534
2808.66	-14.5638
2810.62	-12.7904
2812.57	-12.6793
2814.52	-14.1462
2816.47	-17.5636
2818.41	-22.2991
2820.36	-20.1043
2822.31	-16.6718
2824.25	-12.8861
2826.19	-12.8152
2828.13	-16.571
2830.07	-19.3057
2832	-19.9616
2833.94	-18.6683
2835.87	-15.2835
2837.8	-13.0437
2839.73	-11.8719
2841.66	-10.2714
2843.59	-10.075
2845.51	-11.5589
2847.44	-13.8935
2849.36	-14.2036
2851.28	-14.1565
2853.2	-13.8001
2855.11	-13.1039
2857.03	-12.156
2858.94	-11.2689
2860.86	-10.5098
2862.77	-10.3444
2864.68	-11.0375
2866.58	-12.8145
2868.49	-11.1967
2870.39	-9.65566
2872.3	-8.96443
2874.2	-8.37875
2876.1	-8.54842
2878	-6.94598
2879.89	-4.73004
2881.79	-3.59596
2883.68	-5.02485
2885.57	-7.71438
2887.46	-9.38371
2889.35	-8.78542
2891.24	-5.89289
2893.12	-2.54509
2895.01	-0.74501
2896.89	-0.646687
2898.77	-1.85872
2900.65	-3.90338
2902.53	-5.36884
2904.4	-6.45035
2906.28	-6.87229
2908.15	-4.83549
2910.02	-0.835994
2911.89	2.49396
2913.76	4.15486
2915.63	3.86021
2917.49	3.2643
2919.35	2.59526
2921.22	2.03786
2923.01	2.85393
2924.98	3.06438
2926.94	2.31222
2928.9	2.84263
2930.86	7.6056
2932.83	1.88254
2934.78	-0.525605
2936.74	-1.33118
2938.7	-0.142272
2940.65	3.20241
2942.61	5.32126
2944.56	5.90311
2946.51	4.69504
2948.46	3.71804
2950.41	1.47957
2952.35	1.5864
2954.3	3.12195
2956.24	4.36653
2958.19	2.16016
2960.13	0.380548
2962.07	-1.16598
2964.01	-2.20713
2965.94	-1.25681
2967.88	-0.498775
2969.81	-0.932678
2971.75	-1.14019
2973.68	-1.10422
2975.61	-2.60069
2977.54	-1.67928
2979.47	-0.793379
2981.39	-0.0332547
2983.32	0.343293
2985.24	-1.35228
2987.16	-2.37167
2989.08	-1.08965
2991	0.378433
2992.92	1.70103
2994.84	0.724524
2996.75	-1.81359
2998.67	-5.2665
3000.58	-5.86264
3002.49	-1.42608
3004.4	1.79298
3006.31	3.05593
3008.22	2.05898
3010.12	0.46936
3012.03	-0.368192
3013.93	0.0136712
3015.83	0.740885
3017.73	1.32289
3019.63	-0.183628
3021.53	-2.37464
3023.42	-1.78222
3025.32	-1.84539
3027.21	-6.04097
3029.1	-7.56334
3030.99	-8.12127
3032.88	-5.50967
3034.77	-4.34945
3036.66	-5.56206
3038.54	-7.26227
3040.43	-9.64384
3042.31	-6.59552
3044.19	-3.18016
3046.07	-2.86811
3047.95	-6.08499
3049.82	-10.9734
3051.7	-12.7126
3053.57	-10.5148
3055.45	-8.41416
3057.32	-6.91633
3059.19	-5.33248
3061.06	-3.33272
3062.92	-4.5827
3064.79	-6.32838
3066.66	-7.86808
3068.52	-9.36944
3070.38	-10.5747
3072.24	-11.4375
3074.1	-11.7791
3075.96	-11.0681
3077.82	-10.384
3079.67	-10.1222
3081.52	-11.4718
3083.38	-13.5341
3085.23	-13.886
3087.08	-12.3635
3088.93	-11.326
3090.77	-10.8655
3092.62	-11.175
3094.46	-12.3704
3096.31	-14.493
3098.15	-16.2412
3099.99	-17.2638
3101.83	-17.6157
3103.66	-17.3692
3105.5	-16.4047
3107.33	-15.3099
3109.17	-14.6517
3111	-13.7699
3112.83	-13.057
3114.66	-13.4467
3116.49	-14.4515
3118.31	-15.5611
3120.14	-16.5127
3121.96	-16.6756
3123.78	-16.5223
3125.6	-16.1176
3127.43	-15.717
3129.24	-16.3421
3131.06	-17.1849
3132.88	-17.5548
3134.69	-16.5025
3136.5	-15.4845
3138.31	-14.6596
3140.12	-14.3122
3141.93	-14.637
3143.74	-15.4209
3145.55	-15.2948
3147.35	-15.3043
3149.15	-15.1559
3150.96	-15.2124
3152.76	-14.7822
3154.56	-14.086
3156.35	-13.0699
3158.15	-11.3206
3159.95	-9.8883
3161.74	-12.4076
3163.53	-13.2646
3165.32	-13.1243
3167.11	-13.7185
3168.9	-14.1312
3170.69	-14.6307
3172.47	-14.7903
3174.26	-14.7593
3176.04	-14.5293
3177.82	-14.4727
3179.6	-14.7519
3181.38	-16.7643
3183.16	-17.8711
3184.93	-16.2721
3186.71	-14.9514
3188.48	-15.8849
3190.25	-16.9305
3192.03	-17.7772
3193.79	-16.7082
3195.56	-14.6877
3197.33	-14.5154
3199.09	-15.6258
3200.86	-17.3143
3202.62	-19.1641
3204.38	-17.2743
3206.14	-14.6998
3207.9	-13.7142
3209.66	-13.8089
3211.41	-15.0786
3213.17	-17.1763
3214.92	-18.9624
3216.67	-19.9483
3218.42	-20.7139
3220.17	-17.3344
3221.92	-14.8253
3223.66	-13.943
3225.41	-14.4781
3227.15	-16.4729
3228.89	-18.2625
3230.64	-17.0427
3232.37	-13.9116
3234.11	-11.5046
3235.85	-11.2051
3237.58	-13.2614
3239.32	-16.7403
3241.05	-18.5666
3242.78	-18.4402
3244.51	-18.2146
3246.24	-19.6492
3247.97	-20.5322
3249.69	-19.0022
3251.42	-17.9738
3253.14	-17.5432
3254.86	-17.3898
3256.58	-17.272
3258.3	-14.6907
3260.02	-12.9259
3261.74	-12.6865
3263.45	-14.5197
3265.16	-18.4911
3266.88	-21.4076
3268.59	-22.5144
3270.3	-22.0328
3272.01	-20.7776
3273.71	-19.4794
3275.42	-18.2515
3277.12	-16.7209
3278.82	-16.1398
3280.53	-18.705
3282.23	-20.8788
3283.92	-21.9955
3285.62	-22.458
3287.32	-22.3875
3289.01	-21.9442
3290.71	-22.2327
3292.4	-21.6099
3294.09	-19.8622
3295.78	-17.9221
3297.46	-16.5667
3299.15	-16.1708
3300.84	-17.6126
3302.52	-19.0043
3304.2	-19.1427
3305.88	-19.6137
3307.56	-19.7277
3309.24	-20.4725
3310.92	-20.9488
3312.59	-20.8099
3314.27	-19.3537
3315.94	-17.7778
3317.61	-16.4869
3319.28	-16.2417
3320.95	-16.4665
3322.62	-16.8323
3324.29	-17.2343
3325.95	-17.337
3327.61	-18.0524
3329.28	-18.9305
3330.94	-19.7969
3332.6	-20.6539
3334.26	-21.2375
3335.91	-21.8358
3337.57	-22.7369
3339.22	-22.0977
3340.87	-18.5352
3342.53	-16.2764
3344.18	-16.0885
3345.83	-18.9372
3347.47	-20.8411
3349.12	-20.9555
3350.76	-20.9595
3352.41	-21.9571
3354.05	-22.8488
3355.69	-23.072
3357.33	-22.0249
3358.97	-20.5327
3360.6	-19.9478
3362.24	-19.6507
3363.87	-17.4613
3365.5	-16.6334
3367.14	-18.217
3368.76	-19.6995
3370.39	-20.0538
3372.02	-18.396
3373.65	-16.0978
3375.27	-17.3954
3376.89	-20.3112
3378.52	-20.5227
3380.14	-18.8235
3381.75	-16.9173
3383.37	-14.9065
3384.99	-18.694
3386.6	-19.7668
3388.22	-18.8363
3389.83	-17.638
3391.44	-16.6191
3393.05	-15.903
3394.66	-15.7671
3396.27	-16.1002
3397.87	-16.6086
3399.48	-20.5266